"","Age","Gender","Session","Trial","Advisor","stm_Coh","stm_Dir","Decicion_1","Confidence_1","RT_1","Accuracy_1","Score_1","Score_2","Decision_2","Confidence_2","RT_2","Accuracy_2","avd_Decision","adv_Confidence","adv_Accuracy","Subject_ID"
"1",20,1,1,1,2,0.123,0,0,-0.7,4683,1,82,68,0,-0.6,11063,1,1,0.6,0,1
"2",20,1,1,2,2,0.123,0,0,-0.6,3535,1,68,82,0,-0.7,9150,1,0,-0.7,1,1
"3",20,1,1,3,2,0.123,0,0,-0.7,1387,1,82,82,0,-0.7,4947,1,0,-0.8,1,1
"4",20,1,1,4,2,0.123,1,1,0.6,1510,1,68,68,1,0.6,5235,1,1,1,1,1
"5",20,1,1,5,2,0.123,0,0,-0.6,1142,1,68,28,1,0.6,5952,0,1,1,0,1
"6",20,1,1,6,2,0.123,1,0,-0.6,2010,0,28,68,1,0.6,4320,1,1,0.6,1,1
"7",20,1,1,7,2,0.123,0,1,0.8,1655,0,-28,-28,1,0.8,3805,0,0,-0.7,1,1
"8",20,1,1,8,2,0.123,1,0,-0.7,1112,0,2,2,0,-0.7,4432,0,0,-0.7,0,1
"9",20,1,1,9,2,0.123,0,1,0.8,1190,0,-28,-28,1,0.8,2866,0,1,0.7,0,1
"10",20,1,1,10,2,0.123,0,0,-0.7,892,1,82,82,0,-0.7,2322,1,0,-1,1,1
"11",20,1,1,11,2,0.123,0,1,0.7,1591,0,2,2,1,0.7,3776,0,1,0.8,0,1
"12",20,1,1,12,2,0.123,1,0,-0.7,2223,0,2,28,0,-0.6,6498,0,1,0.8,1,1
"13",20,1,1,13,2,0.123,1,1,0.8,1758,1,92,92,1,0.8,3253,1,1,0.8,1,1
"14",20,1,1,14,2,0.123,0,1,0.9,1874,0,-62,-62,1,0.9,3199,0,1,0.9,0,1
"15",20,1,1,15,2,0.123,1,1,0.6,1826,1,68,68,1,0.6,3571,1,1,0.6,1,1
"16",20,1,1,16,2,0.123,1,1,0.7,3695,1,82,82,1,0.7,4995,1,1,0.7,1,1
"17",20,1,1,17,2,0.123,1,0,-0.8,1183,0,-28,-28,0,-0.8,2503,0,0,-0.9,0,1
"18",20,1,1,18,2,0.123,1,1,0.7,2042,1,82,68,1,0.6,6613,1,0,-0.9,0,1
"19",20,1,1,19,2,0.123,1,1,0.7,1749,1,82,82,1,0.7,4234,1,0,-0.6,0,1
"20",20,1,1,20,2,0.123,0,1,0.7,3601,0,2,28,1,0.6,6716,0,0,-0.6,1,1
"21",20,1,1,21,2,0.123,1,1,0.7,24442,1,82,82,1,0.7,26777,1,1,0.6,1,1
"22",20,1,1,22,2,0.123,0,1,0.7,1658,0,2,28,1,0.6,5158,0,0,-1,1,1
"23",20,1,1,23,2,0.123,0,1,0.6,1083,0,28,28,1,0.6,2423,0,1,0.8,0,1
"24",20,1,1,24,2,0.123,0,0,-0.6,1169,1,68,68,0,-0.6,3084,1,0,-0.9,1,1
"25",20,1,1,25,2,0.123,0,0,-0.6,1155,1,68,68,0,-0.6,3065,1,0,-0.7,1,1
"26",20,1,1,26,2,0.123,0,0,-0.6,704,1,68,68,0,-0.6,2985,1,0,-0.7,1,1
"27",20,1,1,27,2,0.123,1,1,0.6,1667,1,68,82,1,0.7,3357,1,1,0.7,1,1
"28",20,1,1,28,2,0.123,0,0,-0.6,1509,1,68,28,1,0.6,6390,0,1,0.6,0,1
"29",20,1,1,29,2,0.123,0,0,-0.8,1485,1,92,92,0,-0.8,3365,1,0,-0.8,1,1
"30",20,1,1,30,2,0.123,1,1,0.7,965,1,82,68,1,0.6,2955,1,0,-0.9,0,1
"31",20,1,1,31,2,0.123,1,0,-0.6,816,0,28,28,0,-0.6,2726,0,0,-0.8,0,1
"32",20,1,1,32,2,0.123,1,1,0.8,4509,1,92,92,1,0.8,6589,1,1,0.8,1,1
"33",20,1,1,33,2,0.123,0,0,-0.7,1204,1,82,92,0,-0.8,4484,1,0,-1,1,1
"34",20,1,1,34,2,0.123,0,1,0.8,5523,0,-28,-28,1,0.8,7363,0,0,-0.8,1,1
"35",20,1,1,35,2,0.123,1,0,-0.8,1437,0,-28,-28,0,-0.8,3307,0,0,-0.7,0,1
"36",20,1,1,36,2,0.123,0,1,0.7,905,0,2,2,1,0.7,2225,0,0,-1,1,1
"37",20,1,1,37,2,0.123,1,1,0.6,1031,1,68,68,1,0.6,3246,1,0,-0.8,0,1
"38",20,1,1,38,2,0.123,1,0,-0.6,751,0,28,28,0,-0.6,2231,0,1,0.6,1,1
"39",20,1,1,39,2,0.123,0,0,-0.6,687,1,68,68,0,-0.6,3742,1,0,-0.6,1,1
"40",20,1,1,40,2,0.123,1,1,0.7,1175,1,82,82,1,0.7,3070,1,1,0.7,1,1
"41",20,1,1,41,2,0.123,0,0,-0.8,1423,1,92,92,0,-0.8,3383,1,1,0.8,0,1
"42",20,1,1,42,2,0.123,1,1,0.7,1986,1,82,82,1,0.7,3976,1,1,0.7,1,1
"43",20,1,1,43,2,0.123,0,1,0.7,993,0,2,2,1,0.7,2858,0,0,-1,1,1
"44",20,1,1,44,2,0.123,0,1,0.7,1063,0,2,68,0,-0.6,3958,1,0,-0.7,1,1
"45",20,1,1,45,2,0.123,1,0,-0.6,1837,0,28,28,0,-0.6,3727,0,1,0.8,1,1
"46",20,1,1,46,2,0.123,1,1,0.6,809,1,68,68,1,0.6,2119,1,1,0.9,1,1
"47",20,1,1,47,2,0.123,1,1,0.6,1718,1,68,68,1,0.6,3468,1,1,0.9,1,1
"48",20,1,1,48,2,0.123,1,0,-0.8,1741,0,-28,-28,0,-0.8,4357,0,1,1,1,1
"49",20,1,1,49,2,0.123,1,0,-0.6,923,0,28,28,0,-0.6,3523,0,1,0.6,1,1
"50",20,1,1,50,2,0.123,0,1,0.9,2241,0,-62,-62,1,0.9,5472,0,0,-0.6,1,1
"51",20,1,1,51,2,0.123,1,0,-0.7,963,0,2,28,0,-0.6,3403,0,1,0.8,1,1
"52",20,1,1,52,2,0.123,1,0,-0.6,891,0,28,28,0,-0.6,3311,0,0,-0.6,0,1
"53",20,1,1,53,2,0.123,1,1,0.7,1820,1,82,82,1,0.7,3260,1,1,1,1,1
"54",20,1,1,54,2,0.123,1,0,-0.7,990,0,2,2,0,-0.7,2445,0,1,0.6,1,1
"55",20,1,1,55,2,0.123,0,0,-0.6,1217,1,68,68,0,-0.6,3168,1,0,-1,1,1
"56",20,1,1,56,2,0.123,0,1,0.7,870,0,2,-28,1,0.8,2990,0,1,1,0,1
"57",20,1,1,57,2,0.123,0,1,0.7,1917,0,2,2,1,0.7,3537,0,0,-0.6,1,1
"58",20,1,1,58,2,0.123,1,0,-0.8,1318,0,-28,-28,0,-0.8,3358,0,0,-0.8,0,1
"59",20,1,1,59,2,0.123,0,1,0.6,1085,0,28,28,1,0.6,4410,0,1,0.6,0,1
"60",20,1,1,60,2,0.123,0,0,-0.6,922,1,68,28,1,0.6,4492,0,1,0.9,0,1
"61",20,1,1,61,2,0.123,1,0,-0.6,10460,0,28,28,0,-0.6,12970,0,0,-0.7,0,1
"62",20,1,1,62,2,0.123,1,0,-0.6,917,0,28,68,1,0.6,3792,1,1,0.8,1,1
"63",20,1,1,63,2,0.123,0,1,0.7,1502,0,2,28,1,0.6,3827,0,0,-0.8,1,1
"64",20,1,1,64,2,0.123,1,1,0.7,1203,1,82,28,0,-0.6,3828,0,0,-0.8,0,1
"65",20,1,1,65,2,0.123,1,1,0.7,1322,1,82,82,1,0.7,3412,1,1,1,1,1
"66",20,1,1,66,2,0.123,0,1,0.7,2459,0,2,28,1,0.6,4219,0,0,-0.7,1,1
"67",20,1,1,67,2,0.123,1,0,-0.6,1518,0,28,82,1,0.7,4194,1,1,0.9,1,1
"68",20,1,1,68,2,0.123,1,1,0.8,1262,1,92,68,1,0.6,3552,1,0,-0.6,0,1
"69",20,1,1,69,2,0.123,0,1,0.8,1326,0,-28,2,1,0.7,3666,0,0,-0.9,1,1
"70",20,1,1,70,2,0.123,0,1,0.7,1142,0,2,2,1,0.7,3272,0,0,-0.6,1,1
"71",20,1,1,71,2,0.123,0,0,-0.6,993,1,68,68,0,-0.6,2843,1,0,-0.6,1,1
"72",20,1,1,72,2,0.123,1,0,-0.8,1355,0,-28,-28,0,-0.8,3205,0,1,1,1,1
"73",20,1,1,73,2,0.123,0,1,0.6,2655,0,28,28,1,0.6,4600,0,0,-0.8,1,1
"74",20,1,1,74,2,0.123,0,0,-0.6,1241,1,68,28,1,0.6,5642,0,1,1,0,1
"75",20,1,1,75,2,0.123,0,0,-0.6,1083,1,68,68,0,-0.6,2918,1,1,0.9,0,1
"76",20,1,1,76,2,0.123,1,0,-0.6,4096,0,28,2,0,-0.7,6531,0,0,-1,0,1
"77",20,1,1,77,2,0.123,1,0,-0.6,889,0,28,28,0,-0.6,2834,0,0,-0.9,0,1
"78",20,1,1,78,2,0.123,1,1,0.9,1405,1,98,98,1,0.9,2760,1,0,-0.6,0,1
"79",20,1,1,79,2,0.123,1,1,1,1582,1,100,100,1,1,3487,1,1,0.7,1,1
"80",20,1,1,80,2,0.123,0,1,0.7,1214,0,2,2,1,0.7,2654,0,0,-0.7,1,1
"81",20,1,1,81,2,0.123,0,0,-0.6,2562,1,68,68,0,-0.6,4842,1,1,0.7,0,1
"82",20,1,1,82,2,0.123,0,0,-0.7,1186,1,82,82,0,-0.7,2976,1,0,-0.9,1,1
"83",20,1,1,83,2,0.123,0,1,0.6,938,0,28,28,1,0.6,2764,0,0,-0.9,1,1
"84",20,1,1,84,2,0.123,0,0,-0.7,1022,1,82,92,0,-0.8,3182,1,0,-0.8,1,1
"85",20,1,1,85,2,0.123,1,1,0.8,1007,1,92,92,1,0.8,2662,1,1,0.8,1,1
"86",20,1,1,86,2,0.123,1,0,-0.8,1434,0,-28,28,0,-0.6,4059,0,1,0.8,1,1
"87",20,1,1,87,2,0.123,1,1,0.7,1505,1,82,92,1,0.8,4735,1,1,1,1,1
"88",20,1,1,88,2,0.123,0,0,-0.6,1090,1,68,68,0,-0.6,3755,1,1,0.7,0,1
"89",20,1,1,89,2,0.123,0,0,-0.6,963,1,68,82,0,-0.7,2748,1,0,-1,1,1
"90",20,1,1,90,2,0.123,0,0,-0.7,1084,1,82,82,0,-0.7,4770,1,1,0.7,0,1
"91",20,1,1,91,2,0.123,1,0,-0.6,835,0,28,28,0,-0.6,2645,0,1,1,1,1
"92",20,1,1,92,2,0.123,1,1,0.6,1109,1,68,82,1,0.7,3550,1,1,0.9,1,1
"93",20,1,1,93,2,0.123,0,0,-0.7,1385,1,82,82,0,-0.7,3175,1,1,0.9,0,1
"94",20,1,1,94,2,0.123,1,1,0.8,1722,1,92,98,1,0.9,3692,1,1,0.9,1,1
"95",20,1,1,95,2,0.123,0,0,-0.8,1161,1,92,98,0,-0.9,3386,1,0,-0.9,1,1
"96",20,1,1,96,2,0.123,1,0,-0.7,1201,0,2,28,0,-0.6,5541,0,1,0.7,1,1
"97",20,1,1,97,2,0.123,1,0,-0.7,1121,0,2,2,0,-0.7,2886,0,0,-1,0,1
"98",20,1,1,98,2,0.123,1,1,0.8,1591,1,92,92,1,0.8,3376,1,1,0.9,1,1
"99",20,1,1,99,2,0.123,0,0,-0.7,1086,1,82,82,0,-0.7,3517,1,0,-0.6,1,1
"100",20,1,1,100,2,0.123,0,1,0.8,1254,0,-28,2,1,0.7,5549,0,0,-0.9,1,1
"101",20,1,1,101,2,0.123,1,0,-0.7,3125,0,2,2,0,-0.7,5210,0,0,-0.6,0,1
"102",20,1,1,102,2,0.123,0,1,0.7,700,0,2,2,1,0.7,2425,0,0,-1,1,1
"103",20,1,1,103,2,0.123,0,0,-0.6,1052,1,68,68,0,-0.6,2957,1,0,-0.7,1,1
"104",20,1,1,104,2,0.123,1,1,0.7,3349,1,82,82,1,0.7,5709,1,1,0.9,1,1
"105",20,1,1,105,2,0.123,1,0,-0.6,2150,0,28,28,0,-0.6,4060,0,1,0.6,1,1
"106",20,1,1,106,2,0.123,1,1,0.8,1913,1,92,92,1,0.8,3668,1,1,0.6,1,1
"107",20,1,1,107,2,0.123,1,0,-0.8,1836,0,-28,-28,0,-0.8,3941,0,1,0.8,1,1
"108",20,1,1,108,2,0.123,1,1,0.7,1297,1,82,82,1,0.7,3167,1,1,0.7,1,1
"109",20,1,1,109,2,0.123,1,1,0.6,989,1,68,68,1,0.6,3709,1,0,-0.8,0,1
"110",20,1,1,110,2,0.123,1,0,-0.7,1230,0,2,2,0,-0.7,3566,0,1,1,1,1
"111",20,1,1,111,2,0.123,0,0,-0.6,795,1,68,68,0,-0.6,2830,1,1,0.6,0,1
"112",20,1,1,112,2,0.123,0,1,0.6,978,0,28,2,1,0.7,2798,0,1,0.9,0,1
"113",20,1,1,113,2,0.123,0,0,-0.7,1505,1,82,82,0,-0.7,3390,1,0,-0.9,1,1
"114",20,1,1,114,2,0.123,0,1,0.6,880,0,28,28,1,0.6,2610,0,0,-1,1,1
"115",20,1,1,115,2,0.123,0,0,-0.6,2240,1,68,68,0,-0.6,4130,1,1,0.7,0,1
"116",20,1,1,116,2,0.123,0,1,0.6,2048,0,28,68,0,-0.6,4698,1,0,-0.7,1,1
"117",20,1,1,117,2,0.123,0,0,-0.7,2130,1,82,92,0,-0.8,4856,1,0,-0.9,1,1
"118",20,1,1,118,2,0.123,0,1,0.9,1291,0,-62,-62,1,0.9,3066,0,0,-0.8,1,1
"119",20,1,1,119,2,0.123,1,1,0.7,1341,1,82,82,1,0.7,2826,1,0,-1,0,1
"120",20,1,1,120,2,0.123,1,0,-0.9,1362,0,-62,-62,0,-0.9,3112,0,1,1,1,1
"121",20,1,2,121,1,0.123,0,0,-0.6,13918,1,68,82,0,-0.7,15698,1,0,-0.9,1,1
"122",20,1,2,122,1,0.123,0,1,0.6,2549,0,28,68,0,-0.6,6544,1,0,-0.9,1,1
"123",20,1,2,123,1,0.123,0,1,0.6,1861,0,28,2,1,0.7,3766,0,1,0.9,0,1
"124",20,1,2,124,1,0.123,1,1,0.6,1079,1,68,28,0,-0.6,3104,0,0,-0.8,0,1
"125",20,1,2,125,1,0.123,1,1,0.6,4179,1,68,28,0,-0.6,6769,0,0,-0.6,0,1
"126",20,1,2,126,1,0.123,0,1,0.7,1348,0,2,2,1,0.7,3043,0,0,-0.8,1,1
"127",20,1,2,127,1,0.123,1,0,-0.6,2363,0,28,28,0,-0.6,4018,0,1,1,1,1
"128",20,1,2,128,1,0.123,1,1,0.6,2017,1,68,82,1,0.7,4582,1,1,0.7,1,1
"129",20,1,2,129,1,0.123,1,0,-0.8,4528,0,-28,-28,0,-0.8,6393,0,0,-0.9,0,1
"130",20,1,2,130,1,0.123,0,1,0.7,2661,0,2,2,1,0.7,4561,0,0,-1,1,1
"131",20,1,2,131,1,0.123,0,0,-0.6,2147,1,68,68,0,-0.6,3577,1,1,1,0,1
"132",20,1,2,132,1,0.123,0,0,-0.6,4786,1,68,68,0,-0.6,6466,1,1,1,0,1
"133",20,1,2,133,1,0.123,0,0,-0.6,3096,1,68,68,0,-0.6,4741,1,1,1,0,1
"134",20,1,2,134,1,0.123,1,0,-0.6,985,0,28,28,0,-0.6,2635,0,0,-0.9,0,1
"135",20,1,2,135,1,0.123,1,0,-0.6,2744,0,28,28,0,-0.6,4399,0,1,0.6,1,1
"136",20,1,2,136,1,0.123,0,0,-0.7,8641,1,82,82,0,-0.7,9941,1,0,-0.7,1,1
"137",20,1,2,137,1,0.123,1,0,-0.6,973,0,28,28,0,-0.6,2733,0,1,0.8,1,1
"138",20,1,2,138,1,0.123,1,0,-0.6,812,0,28,28,0,-0.6,2192,0,0,-0.6,0,1
"139",20,1,2,139,1,0.123,0,0,-0.6,866,1,68,68,0,-0.6,3346,1,0,-0.9,1,1
"140",20,1,2,140,1,0.123,1,0,-0.6,2034,0,28,28,0,-0.6,5535,0,0,-0.6,0,1
"141",20,1,2,141,1,0.123,0,0,-0.6,1113,1,68,2,1,0.7,3863,0,1,0.9,0,1
"142",20,1,2,142,1,0.123,0,0,-0.6,939,1,68,68,0,-0.6,2289,1,1,1,0,1
"143",20,1,2,143,1,0.123,1,0,-0.6,730,0,28,28,0,-0.6,2205,0,1,0.7,1,1
"144",20,1,2,144,1,0.123,0,0,-0.6,829,1,68,68,0,-0.6,3804,1,0,-0.7,1,1
"145",20,1,2,145,1,0.123,1,0,-0.6,788,0,28,28,0,-0.6,2569,0,1,0.9,1,1
"146",20,1,2,146,1,0.123,0,1,0.6,4512,0,28,28,1,0.6,5947,0,0,-0.8,1,1
"147",20,1,2,147,1,0.123,1,0,-0.6,977,0,28,28,0,-0.6,2643,0,1,1,1,1
"148",20,1,2,148,1,0.123,0,0,-0.6,1864,1,68,68,0,-0.6,4059,1,1,0.9,0,1
"149",20,1,2,149,1,0.123,1,1,0.7,2626,1,82,82,1,0.7,4201,1,0,-0.9,0,1
"150",20,1,2,150,1,0.123,1,0,-0.8,1129,0,-28,-28,0,-0.8,2839,0,0,-0.7,0,1
"151",20,1,2,151,1,0.123,1,1,1,1734,1,100,100,1,1,4774,1,1,1,1,1
"152",20,1,2,152,1,0.123,1,1,0.9,2980,1,98,98,1,0.9,4420,1,1,0.8,1,1
"153",20,1,2,153,1,0.123,0,1,0.8,1414,0,-28,-28,1,0.8,3104,0,1,0.7,0,1
"154",20,1,2,154,1,0.123,0,0,-1,1249,1,100,100,0,-1,2994,1,0,-1,1,1
"155",20,1,2,155,1,0.123,1,0,-0.6,1257,0,28,28,0,-0.6,2937,0,1,0.7,1,1
"156",20,1,2,156,1,0.123,0,1,0.8,928,0,-28,-28,1,0.8,2889,0,1,0.7,0,1
"157",20,1,2,157,1,0.123,1,0,-0.7,861,0,2,2,0,-0.7,3121,0,0,-0.7,0,1
"158",20,1,2,158,1,0.123,0,1,0.7,989,0,2,2,1,0.7,2704,0,0,-1,1,1
"159",20,1,2,159,1,0.123,0,0,-0.6,781,1,68,68,0,-0.6,2411,1,0,-0.7,1,1
"160",20,1,2,160,1,0.123,1,1,0.6,1997,1,68,68,1,0.6,3637,1,0,-0.9,0,1
"161",20,1,2,161,1,0.123,1,1,0.6,827,1,68,68,1,0.6,2152,1,1,0.6,1,1
"162",20,1,2,162,1,0.123,0,1,0.7,837,0,2,2,1,0.7,2572,0,1,0.6,0,1
"163",20,1,2,163,1,0.123,1,0,-0.8,1456,0,-28,-28,0,-0.8,3111,0,1,1,1,1
"164",20,1,2,164,1,0.123,1,0,-0.6,984,0,28,28,0,-0.6,2369,0,1,0.7,1,1
"165",20,1,2,165,1,0.123,1,1,0.6,1111,1,68,68,1,0.6,2771,1,0,-0.6,0,1
"166",20,1,2,166,1,0.123,0,1,0.6,928,0,28,2,1,0.7,2773,0,1,0.9,0,1
"167",20,1,2,167,1,0.123,1,0,-0.7,1092,0,2,2,0,-0.7,2737,0,1,0.9,1,1
"168",20,1,2,168,1,0.123,0,0,-0.6,877,1,68,68,0,-0.6,2557,1,1,0.6,0,1
"169",20,1,2,169,1,0.123,1,0,-0.6,676,0,28,28,0,-0.6,2226,0,1,0.8,1,1
"170",20,1,2,170,1,0.123,0,0,-0.6,1817,1,68,68,0,-0.6,3452,1,0,-0.8,1,1
"171",20,1,2,171,1,0.123,0,0,-0.6,1895,1,68,28,1,0.6,3965,0,1,0.8,0,1
"172",20,1,2,172,1,0.123,0,0,-0.6,758,1,68,68,0,-0.6,2368,1,1,0.6,0,1
"173",20,1,2,173,1,0.123,1,0,-0.6,661,0,28,28,0,-0.6,2346,0,1,0.8,1,1
"174",20,1,2,174,1,0.123,1,1,0.6,552,1,68,68,1,0.6,2377,1,0,-0.8,0,1
"175",20,1,2,175,1,0.123,1,0,-0.9,2524,0,-62,-62,0,-0.9,4154,0,1,1,1,1
"176",20,1,2,176,1,0.123,1,0,-0.6,607,0,28,28,0,-0.6,2197,0,1,0.8,1,1
"177",20,1,2,177,1,0.123,1,0,-0.7,903,0,2,2,0,-0.7,2464,0,0,-1,0,1
"178",20,1,2,178,1,0.123,1,1,0.8,1220,1,92,92,1,0.8,3260,1,1,0.8,1,1
"179",20,1,2,179,1,0.123,0,0,-0.8,1472,1,92,92,0,-0.8,3137,1,1,0.9,0,1
"180",20,1,2,180,1,0.123,0,1,0.9,1405,0,-62,-62,1,0.9,2805,0,1,0.7,0,1
"181",20,1,2,181,1,0.123,1,1,0.7,1162,1,82,68,1,0.6,3612,1,1,1,1,1
"182",20,1,2,182,1,0.123,0,0,-0.6,1350,1,68,68,0,-0.6,2950,1,1,0.9,0,1
"183",20,1,2,183,1,0.123,1,1,0.7,889,1,82,82,1,0.7,2554,1,0,-0.8,0,1
"184",20,1,2,184,1,0.123,0,0,-0.8,936,1,92,98,0,-0.9,2711,1,0,-1,1,1
"185",20,1,2,185,1,0.123,1,1,0.8,1189,1,92,98,1,0.9,3364,1,1,1,1,1
"186",20,1,2,186,1,0.123,0,0,-1,1432,1,100,100,0,-1,3087,1,1,0.6,0,1
"187",20,1,2,187,1,0.123,1,1,1,1339,1,100,100,1,1,2894,1,1,0.7,1,1
"188",20,1,2,188,1,0.123,1,0,-1,1515,0,-100,-100,0,-1,3035,0,0,-0.6,0,1
"189",20,1,2,189,1,0.123,1,0,-0.6,2503,0,28,28,0,-0.6,4049,0,0,-1,0,1
"190",20,1,2,190,1,0.123,0,1,0.6,644,0,28,28,1,0.6,3639,0,1,0.6,0,1
"191",20,1,2,191,1,0.123,0,0,-0.7,952,1,82,82,0,-0.7,2577,1,0,-1,1,1
"192",20,1,2,192,1,0.123,1,1,0.6,714,1,68,68,1,0.6,2244,1,0,-0.8,0,1
"193",20,1,2,193,1,0.123,0,1,0.6,706,0,28,28,1,0.6,2251,0,0,-0.7,1,1
"194",20,1,2,194,1,0.123,0,0,-0.6,633,1,68,68,0,-0.6,2008,1,1,0.8,0,1
"195",20,1,2,195,1,0.123,0,1,0.6,646,0,28,28,1,0.6,2711,0,1,0.6,0,1
"196",20,1,2,196,1,0.123,0,0,-0.6,751,1,68,68,0,-0.6,2621,1,0,-1,1,1
"197",20,1,2,197,1,0.123,0,0,-0.7,4174,1,82,82,0,-0.7,5789,1,1,0.9,0,1
"198",20,1,2,198,1,0.123,0,0,-0.7,1095,1,82,82,0,-0.7,2585,1,0,-0.6,1,1
"199",20,1,2,199,1,0.123,1,1,0.8,1372,1,92,98,1,0.9,4913,1,1,1,1,1
"200",20,1,2,200,1,0.123,1,1,0.6,1114,1,68,68,1,0.6,2874,1,0,-0.9,0,1
"201",20,1,2,201,1,0.123,1,1,0.7,2004,1,82,82,1,0.7,3754,1,0,-0.7,0,1
"202",20,1,2,202,1,0.123,1,0,-0.8,2147,0,-28,-62,0,-0.9,4442,0,0,-0.7,0,1
"203",20,1,2,203,1,0.123,0,1,0.6,1504,0,28,28,1,0.6,3039,0,0,-0.6,1,1
"204",20,1,2,204,1,0.123,0,1,0.6,1187,0,28,28,1,0.6,2877,0,0,-0.9,1,1
"205",20,1,2,205,1,0.123,0,1,0.6,1848,0,28,28,1,0.6,3398,0,0,-0.9,1,1
"206",20,1,2,206,1,0.123,1,0,-0.6,783,0,28,28,0,-0.6,3244,0,0,-1,0,1
"207",20,1,2,207,1,0.123,0,1,0.6,1941,0,28,28,1,0.6,3421,0,0,-0.9,1,1
"208",20,1,2,208,1,0.123,0,1,0.6,1329,0,28,28,1,0.6,3189,0,1,0.6,0,1
"209",20,1,2,209,1,0.123,1,0,-0.6,614,0,28,28,0,-0.6,2214,0,1,0.6,1,1
"210",20,1,2,210,1,0.123,1,1,0.6,818,1,68,68,1,0.6,2528,1,1,0.6,1,1
"211",20,1,2,211,1,0.123,1,1,0.6,827,1,68,68,1,0.6,2283,1,1,0.6,1,1
"212",20,1,2,212,1,0.123,0,1,0.6,545,0,28,28,1,0.6,2100,0,0,-0.6,1,1
"213",20,1,2,213,1,0.123,0,1,0.6,651,0,28,28,1,0.6,2146,0,0,-0.8,1,1
"214",20,1,2,214,1,0.123,1,0,-0.6,3198,0,28,28,0,-0.6,4598,0,0,-0.7,0,1
"215",20,1,2,215,1,0.123,1,1,0.6,3730,1,68,68,1,0.6,5300,1,1,0.8,1,1
"216",20,1,2,216,1,0.123,0,1,0.6,3966,0,28,28,1,0.6,5606,0,0,-0.8,1,1
"217",20,1,2,217,1,0.123,1,1,0.6,852,1,68,68,1,0.6,2312,1,1,0.7,1,1
"218",20,1,2,218,1,0.123,1,0,-1,1494,0,-100,-100,0,-1,3280,0,0,-0.8,0,1
"219",20,1,2,219,1,0.123,0,1,0.8,1224,0,-28,-28,1,0.8,2869,0,0,-0.6,1,1
"220",20,1,2,220,1,0.123,0,0,-0.8,1169,1,92,92,0,-0.8,2809,1,1,0.8,0,1
"221",20,1,2,221,1,0.123,1,1,0.7,1654,1,82,82,1,0.7,3249,1,0,-0.8,0,1
"222",20,1,2,222,1,0.123,1,1,0.7,1403,1,82,82,1,0.7,2778,1,1,0.7,1,1
"223",20,1,2,223,1,0.123,0,1,0.7,3334,0,2,28,1,0.6,6429,0,0,-0.7,1,1
"224",20,1,2,224,1,0.123,0,0,-0.6,1239,1,68,68,0,-0.6,3729,1,0,-0.6,1,1
"225",20,1,2,225,1,0.123,0,1,0.7,1234,0,2,2,1,0.7,3055,0,0,-0.7,1,1
"226",20,1,2,226,1,0.123,0,0,-0.6,1565,1,68,68,0,-0.6,3140,1,0,-1,1,1
"227",20,1,2,227,1,0.123,0,1,0.7,1680,0,2,28,1,0.6,3735,0,0,-0.6,1,1
"228",20,1,2,228,1,0.123,0,0,-0.6,2325,1,68,68,0,-0.6,4055,1,1,0.9,0,1
"229",20,1,2,229,1,0.123,1,0,-0.9,1448,0,-62,-28,0,-0.8,3473,0,1,0.8,1,1
"230",20,1,2,230,1,0.123,0,1,0.6,1747,0,28,68,0,-0.6,5187,1,0,-0.7,1,1
"231",20,1,2,231,1,0.123,0,0,-0.6,1031,1,68,82,0,-0.7,3021,1,0,-0.9,1,1
"232",20,1,2,232,1,0.123,1,0,-0.7,1195,0,2,2,0,-0.7,2836,0,1,0.7,1,1
"233",20,1,2,233,1,0.123,1,0,-0.6,1518,0,28,28,0,-0.6,4253,0,0,-0.6,0,1
"234",20,1,2,234,1,0.123,0,1,0.7,1271,0,2,2,1,0.7,2916,0,0,-0.8,1,1
"235",20,1,2,235,1,0.123,1,0,-0.6,1422,0,28,28,0,-0.6,4382,0,1,0.7,1,1
"236",20,1,2,236,1,0.123,0,0,-0.6,1006,1,68,68,0,-0.6,2631,1,1,0.9,0,1
"237",20,1,2,237,1,0.123,1,1,0.6,1151,1,68,68,1,0.6,3151,1,0,-1,0,1
"238",20,1,2,238,1,0.123,1,1,0.6,640,1,68,68,1,0.6,2215,1,1,0.8,1,1
"239",20,1,2,239,1,0.123,0,1,0.6,1074,0,28,28,1,0.6,3279,0,0,-1,1,1
"240",20,1,2,240,1,0.123,1,0,-0.6,1603,0,28,28,0,-0.6,3383,0,1,0.9,1,1
"241",27,1,1,1,1,0.028733,0,0,-0.7,3087,1,82,92,0,-0.8,6912,1,0,-0.9,1,2
"242",27,1,1,2,1,0.028733,1,1,0.8,1619,1,92,92,1,0.8,9005,1,0,-0.9,0,2
"243",27,1,1,3,1,0.028733,1,1,0.6,1756,1,68,68,1,0.6,5396,1,1,0.8,1,2
"244",27,1,1,4,1,0.028733,0,0,-0.6,3418,1,68,82,0,-0.7,5728,1,0,-0.7,1,2
"245",27,1,1,5,1,0.028733,1,1,0.8,1349,1,92,92,1,0.8,6114,1,0,-0.7,0,2
"246",27,1,1,6,1,0.028733,1,1,0.6,1681,1,68,82,1,0.7,6116,1,1,1,1,2
"247",27,1,1,7,1,0.028733,1,1,0.6,1027,1,68,82,1,0.7,3262,1,1,1,1,2
"248",27,1,1,8,1,0.028733,0,1,0.6,2088,0,28,28,1,0.6,10193,0,0,-0.8,1,2
"249",27,1,1,9,1,0.028733,1,1,0.6,1612,1,68,82,1,0.7,4392,1,1,0.9,1,2
"250",27,1,1,10,1,0.028733,1,1,0.6,2654,1,68,82,1,0.7,6569,1,1,0.8,1,2
"251",27,1,1,11,1,0.028733,1,1,0.6,988,1,68,68,1,0.6,4619,1,1,0.7,1,2
"252",27,1,1,12,1,0.028733,0,0,-0.6,1351,1,68,28,1,0.6,4106,0,1,0.6,0,2
"253",27,1,1,13,1,0.028733,0,1,0.6,993,0,28,68,0,-0.6,5044,1,0,-0.9,1,2
"254",27,1,1,14,1,0.028733,0,0,-0.6,1575,1,68,28,1,0.6,5840,0,1,1,0,2
"255",27,1,1,15,1,0.028733,0,0,-0.6,1813,1,68,82,0,-0.7,4094,1,0,-0.8,1,2
"256",27,1,1,16,1,0.028733,0,0,-0.6,763,1,68,82,0,-0.7,3258,1,0,-0.7,1,2
"257",27,1,1,17,1,0.028733,0,0,-0.6,1093,1,68,68,0,-0.6,3308,1,1,0.7,0,2
"258",27,1,1,18,1,0.028733,0,0,-0.6,858,1,68,82,0,-0.7,3063,1,0,-0.8,1,2
"259",27,1,1,19,1,0.028733,1,1,0.6,803,1,68,68,1,0.6,3153,1,1,0.7,1,2
"260",27,1,1,20,1,0.028733,1,1,0.7,1027,1,82,82,1,0.7,2733,1,0,-0.6,0,2
"261",27,1,1,21,1,0.028733,1,1,0.7,1087,1,82,92,1,0.8,3097,1,1,0.9,1,2
"262",27,1,1,22,1,0.028733,1,1,0.7,1129,1,82,82,1,0.7,2769,1,0,-0.8,0,2
"263",27,1,1,23,1,0.028733,0,1,0.6,697,0,28,28,1,0.6,2382,0,1,0.6,0,2
"264",27,1,1,24,1,0.028733,0,0,-0.7,2035,1,82,82,0,-0.7,3370,1,1,0.8,0,2
"265",27,1,1,25,1,0.028733,1,1,0.7,1266,1,82,82,1,0.7,3962,1,1,0.6,1,2
"266",27,1,1,26,1,0.028733,1,1,0.7,1934,1,82,92,1,0.8,3934,1,1,1,1,2
"267",27,1,1,27,1,0.028733,1,1,0.7,1385,1,82,98,1,0.9,5883,1,1,1,1,2
"268",27,1,1,28,1,0.028733,1,1,0.8,1443,1,92,92,1,0.8,3058,1,0,-0.8,0,2
"269",27,1,1,29,1,0.028733,0,1,0.6,799,0,28,28,1,0.6,5274,0,0,-1,1,2
"270",27,1,1,30,1,0.028733,1,1,0.6,1604,1,68,82,1,0.7,3714,1,1,0.9,1,2
"271",27,1,1,31,1,0.028733,0,0,-0.6,906,1,68,82,0,-0.7,2561,1,0,-0.9,1,2
"272",27,1,1,32,1,0.028733,0,0,-0.8,1225,1,92,92,0,-0.8,3160,1,0,-0.6,1,2
"273",27,1,1,33,1,0.028733,1,1,0.7,853,1,82,98,1,0.9,3028,1,1,1,1,2
"274",27,1,1,34,1,0.028733,0,0,-0.6,900,1,68,68,0,-0.6,2515,1,1,0.6,0,2
"275",27,1,1,35,1,0.028733,0,0,-0.7,963,1,82,82,0,-0.7,2588,1,1,0.7,0,2
"276",27,1,1,36,1,0.028733,1,1,0.6,732,1,68,68,1,0.6,2907,1,1,1,1,2
"277",27,1,1,37,1,0.028733,1,1,0.6,1377,1,68,68,1,0.6,4127,1,1,1,1,2
"278",27,1,1,38,1,0.028733,0,0,-0.7,828,1,82,98,0,-0.9,3298,1,0,-1,1,2
"279",27,1,1,39,1,0.028733,1,1,0.7,1408,1,82,92,1,0.8,3403,1,1,0.8,1,2
"280",27,1,1,40,1,0.028733,0,0,-0.6,684,1,68,82,0,-0.7,2619,1,0,-0.8,1,2
"281",27,1,1,41,1,0.028733,1,1,0.7,1647,1,82,82,1,0.7,3763,1,0,-0.8,0,2
"282",27,1,1,42,1,0.028733,0,0,-0.6,761,1,68,82,0,-0.7,2856,1,0,-0.7,1,2
"283",27,1,1,43,1,0.028733,1,1,0.7,1005,1,82,82,1,0.7,2590,1,0,-0.7,0,2
"284",27,1,1,44,1,0.028733,0,1,0.6,619,0,28,2,1,0.7,2569,0,1,0.8,0,2
"285",27,1,1,45,1,0.028733,1,1,0.6,932,1,68,68,1,0.6,3212,1,0,-0.6,0,2
"286",27,1,1,46,1,0.028733,0,0,-0.6,702,1,68,68,0,-0.6,3117,1,0,-0.6,1,2
"287",27,1,1,47,1,0.028733,1,1,0.6,844,1,68,82,1,0.7,2859,1,1,0.8,1,2
"288",27,1,1,48,1,0.028733,0,0,-0.6,1558,1,68,92,0,-0.8,3658,1,0,-0.9,1,2
"289",27,1,1,49,1,0.028733,0,0,-0.8,1612,1,92,100,0,-1,3707,1,0,-1,1,2
"290",27,1,1,50,1,0.028733,0,0,-0.6,722,1,68,82,0,-0.7,3022,1,0,-0.8,1,2
"291",27,1,1,51,1,0.028733,0,0,-0.8,1280,1,92,100,0,-1,3571,1,0,-1,1,2
"292",27,1,1,52,1,0.028733,1,1,0.7,1014,1,82,98,1,0.9,3534,1,1,0.9,1,2
"293",27,1,1,53,1,0.028733,0,0,-0.6,647,1,68,68,0,-0.6,2182,1,0,-0.6,1,2
"294",27,1,1,54,1,0.028733,0,0,-0.6,1099,1,68,68,0,-0.6,4059,1,1,0.9,0,2
"295",27,1,1,55,1,0.028733,1,1,0.7,887,1,82,92,1,0.8,2837,1,1,0.9,1,2
"296",27,1,1,56,1,0.028733,1,1,0.7,872,1,82,82,1,0.7,2467,1,1,0.6,1,2
"297",27,1,1,57,1,0.028733,0,0,-0.6,669,1,68,68,0,-0.6,2774,1,0,-0.7,1,2
"298",27,1,1,58,1,0.028733,0,0,-0.6,665,1,68,82,0,-0.7,2675,1,0,-1,1,2
"299",27,1,1,59,1,0.028733,1,1,0.8,1328,1,92,92,1,0.8,2808,1,1,0.8,1,2
"300",27,1,1,60,1,0.028733,0,1,0.6,2312,0,28,68,0,-0.6,4447,1,0,-0.8,1,2
"301",27,1,1,61,1,0.028733,1,1,0.7,2168,1,82,82,1,0.7,3573,1,1,0.8,1,2
"302",27,1,1,62,1,0.028733,0,0,-0.6,945,1,68,68,0,-0.6,2775,1,0,-0.9,1,2
"303",27,1,1,63,1,0.028733,0,0,-0.7,1382,1,82,68,0,-0.6,3832,1,1,0.7,0,2
"304",27,1,1,64,1,0.028733,1,1,0.6,2527,1,68,68,1,0.6,4267,1,0,-0.9,0,2
"305",27,1,1,65,1,0.028733,1,1,0.6,1424,1,68,68,1,0.6,3014,1,1,0.9,1,2
"306",27,1,1,66,1,0.028733,1,1,0.7,1101,1,82,92,1,0.8,3091,1,1,1,1,2
"307",27,1,1,67,1,0.028733,0,0,-0.7,1101,1,82,82,0,-0.7,2701,1,1,0.6,0,2
"308",27,1,1,68,1,0.028733,0,0,-0.7,1080,1,82,92,0,-0.8,4145,1,0,-0.6,1,2
"309",27,1,1,69,1,0.028733,1,1,0.7,875,1,82,92,1,0.8,2835,1,1,0.8,1,2
"310",27,1,1,70,1,0.028733,1,1,0.7,1011,1,82,98,1,0.9,3886,1,1,1,1,2
"311",27,1,1,71,1,0.028733,1,1,0.7,1100,1,82,92,1,0.8,3265,1,1,0.9,1,2
"312",27,1,1,72,1,0.028733,1,1,0.6,643,1,68,68,1,0.6,2298,1,1,0.7,1,2
"313",27,1,1,73,1,0.028733,1,1,0.8,1213,1,92,92,1,0.8,2908,1,1,0.7,1,2
"314",27,1,1,74,1,0.028733,0,1,0.6,621,0,28,28,1,0.6,2301,0,0,-0.9,1,2
"315",27,1,1,75,1,0.028733,1,1,0.6,582,1,68,68,1,0.6,2227,1,0,-0.8,0,2
"316",27,1,1,76,1,0.028733,1,1,0.7,747,1,82,82,1,0.7,2337,1,1,0.7,1,2
"317",27,1,1,77,1,0.028733,0,0,-0.6,665,1,68,82,0,-0.7,2615,1,0,-0.7,1,2
"318",27,1,1,78,1,0.028733,1,1,0.7,1235,1,82,98,1,0.9,4171,1,1,0.9,1,2
"319",27,1,1,79,1,0.028733,0,0,-0.8,1696,1,92,92,0,-0.8,4921,1,1,0.8,0,2
"320",27,1,1,80,1,0.028733,0,0,-0.7,924,1,82,98,0,-0.9,4780,1,0,-0.9,1,2
"321",27,1,1,81,1,0.028733,1,1,0.7,860,1,82,92,1,0.8,3340,1,1,0.9,1,2
"322",27,1,1,82,1,0.028733,1,1,0.8,1050,1,92,100,1,1,3870,1,1,1,1,2
"323",27,1,1,83,1,0.028733,0,0,-0.6,661,1,68,68,0,-0.6,2431,1,1,0.6,0,2
"324",27,1,1,84,1,0.028733,1,1,0.6,635,1,68,68,1,0.6,2270,1,0,-0.6,0,2
"325",27,1,1,85,1,0.028733,0,1,0.6,2001,0,28,28,1,0.6,3462,0,0,-0.7,1,2
"326",27,1,1,86,1,0.028733,1,1,0.8,1582,1,92,98,1,0.9,3577,1,1,0.9,1,2
"327",27,1,1,87,1,0.028733,1,1,0.8,1037,1,92,92,1,0.8,2622,1,0,-0.7,0,2
"328",27,1,1,88,1,0.028733,1,1,0.8,1197,1,92,92,1,0.8,2797,1,0,-0.6,0,2
"329",27,1,1,89,1,0.028733,0,1,0.6,941,0,28,2,1,0.7,2686,0,1,0.7,0,2
"330",27,1,1,90,1,0.028733,0,1,0.6,2089,0,28,68,0,-0.6,4315,1,0,-0.8,1,2
"331",27,1,1,91,1,0.028733,1,1,0.6,698,1,68,82,1,0.7,2363,1,1,0.9,1,2
"332",27,1,1,92,1,0.028733,1,1,0.7,1010,1,82,92,1,0.8,3021,1,1,0.8,1,2
"333",27,1,1,93,1,0.028733,0,1,0.6,588,0,28,68,0,-0.6,3288,1,0,-0.9,1,2
"334",27,1,1,94,1,0.028733,1,1,0.7,1110,1,82,82,1,0.7,2825,1,1,0.6,1,2
"335",27,1,1,95,1,0.028733,0,0,-0.6,632,1,68,68,0,-0.6,2727,1,0,-0.6,1,2
"336",27,1,1,96,1,0.028733,1,1,0.7,941,1,82,82,1,0.7,2596,1,0,-0.6,0,2
"337",27,1,1,97,1,0.028733,0,1,0.6,1401,0,28,28,1,0.6,3011,0,1,0.6,0,2
"338",27,1,1,98,1,0.028733,0,1,0.6,691,0,28,28,1,0.6,3501,0,0,-0.6,1,2
"339",27,1,1,99,1,0.028733,1,1,0.6,1213,1,68,68,1,0.6,2993,1,0,-0.6,0,2
"340",27,1,1,100,1,0.028733,0,0,-0.7,1203,1,82,92,0,-0.8,3038,1,0,-0.9,1,2
"341",27,1,1,101,1,0.028733,0,1,0.7,1000,0,2,2,1,0.7,2860,0,0,-1,1,2
"342",27,1,1,102,1,0.028733,1,1,0.6,1352,1,68,68,1,0.6,3242,1,0,-0.9,0,2
"343",27,1,1,103,1,0.028733,0,0,-0.6,1437,1,68,68,0,-0.6,3117,1,1,0.6,0,2
"344",27,1,1,104,1,0.028733,1,1,0.7,1122,1,82,82,1,0.7,2867,1,1,0.6,1,2
"345",27,1,1,105,1,0.028733,0,0,-0.6,673,1,68,82,0,-0.7,2408,1,0,-0.7,1,2
"346",27,1,1,106,1,0.028733,0,0,-0.8,1259,1,92,92,0,-0.8,2929,1,0,-0.7,1,2
"347",27,1,1,107,1,0.028733,0,0,-0.8,1486,1,92,92,0,-0.8,3016,1,0,-0.8,1,2
"348",27,1,1,108,1,0.028733,0,0,-0.8,1138,1,92,100,0,-1,3363,1,0,-1,1,2
"349",27,1,1,109,1,0.028733,0,0,-0.8,1444,1,92,100,0,-1,3744,1,0,-1,1,2
"350",27,1,1,110,1,0.028733,1,1,0.6,620,1,68,82,1,0.7,2595,1,1,0.7,1,2
"351",27,1,1,111,1,0.028733,1,1,0.7,769,1,82,82,1,0.7,2329,1,0,-0.7,0,2
"352",27,1,1,112,1,0.028733,0,1,0.6,1603,0,28,68,0,-0.6,3763,1,0,-1,1,2
"353",27,1,1,113,1,0.028733,1,1,0.6,610,1,68,82,1,0.7,2340,1,1,1,1,2
"354",27,1,1,114,1,0.028733,1,1,0.6,669,1,68,82,1,0.7,2559,1,1,0.8,1,2
"355",27,1,1,115,1,0.028733,0,0,-0.6,887,1,68,82,0,-0.7,2753,1,0,-1,1,2
"356",27,1,1,116,1,0.028733,1,1,0.7,1058,1,82,82,1,0.7,2678,1,1,0.7,1,2
"357",27,1,1,117,1,0.028733,0,0,-0.7,1111,1,82,92,0,-0.8,5391,1,0,-1,1,2
"358",27,1,1,118,1,0.028733,0,0,-0.8,2428,1,92,92,0,-0.8,5963,1,0,-1,1,2
"359",27,1,1,119,1,0.028733,1,1,0.7,2088,1,82,82,1,0.7,3578,1,1,0.7,1,2
"360",27,1,1,120,1,0.028733,0,0,-0.8,3269,1,92,92,0,-0.8,4894,1,1,0.6,0,2
"361",27,1,2,121,2,0.028733,0,0,-0.6,1252,1,68,82,0,-0.7,3552,1,0,-0.8,1,2
"362",27,1,2,122,2,0.028733,0,0,-0.7,1779,1,82,82,0,-0.7,3284,1,0,-0.7,1,2
"363",27,1,2,123,2,0.028733,0,0,-0.8,1181,1,92,100,0,-1,3161,1,0,-1,1,2
"364",27,1,2,124,2,0.028733,0,0,-0.7,1768,1,82,98,0,-0.9,3779,1,0,-0.9,1,2
"365",27,1,2,125,2,0.028733,0,0,-0.7,1092,1,82,100,0,-1,3447,1,0,-0.9,1,2
"366",27,1,2,126,2,0.028733,1,1,0.7,907,1,82,82,1,0.7,2432,1,1,0.6,1,2
"367",27,1,2,127,2,0.028733,0,0,-0.6,916,1,68,92,0,-0.8,3206,1,0,-1,1,2
"368",27,1,2,128,2,0.028733,0,0,-0.7,1149,1,82,82,0,-0.7,3524,1,0,-0.6,1,2
"369",27,1,2,129,2,0.028733,0,0,-0.7,1087,1,82,92,0,-0.8,2953,1,0,-0.8,1,2
"370",27,1,2,130,2,0.028733,1,0,-0.6,1141,0,28,68,1,0.6,4651,1,1,0.7,1,2
"371",27,1,2,131,2,0.028733,1,0,-0.6,860,0,28,28,0,-0.6,2545,0,1,1,1,2
"372",27,1,2,132,2,0.028733,1,1,0.6,785,1,68,82,1,0.7,2945,1,1,0.9,1,2
"373",27,1,2,133,2,0.028733,1,1,0.6,1216,1,68,68,1,0.6,2776,1,1,0.6,1,2
"374",27,1,2,134,2,0.028733,1,1,0.7,844,1,82,100,1,1,3044,1,1,1,1,2
"375",27,1,2,135,2,0.028733,0,0,-0.7,927,1,82,92,0,-0.8,3482,1,0,-0.7,1,2
"376",27,1,2,136,2,0.028733,1,1,0.6,671,1,68,92,1,0.8,2891,1,1,1,1,2
"377",27,1,2,137,2,0.028733,1,1,0.7,951,1,82,100,1,1,3351,1,1,1,1,2
"378",27,1,2,138,2,0.028733,1,1,0.6,1069,1,68,82,1,0.7,2974,1,1,0.7,1,2
"379",27,1,2,139,2,0.028733,1,1,0.7,773,1,82,82,1,0.7,2603,1,1,0.6,1,2
"380",27,1,2,140,2,0.028733,1,1,0.8,1371,1,92,92,1,0.8,3851,1,1,0.8,1,2
"381",27,1,2,141,2,0.028733,0,1,0.6,731,0,28,68,0,-0.6,3171,1,0,-0.9,1,2
"382",27,1,2,142,2,0.028733,1,1,0.7,1176,1,82,82,1,0.7,2851,1,1,0.7,1,2
"383",27,1,2,143,2,0.028733,1,1,0.7,944,1,82,100,1,1,3499,1,1,0.9,1,2
"384",27,1,2,144,2,0.028733,0,0,-0.6,707,1,68,68,0,-0.6,2842,1,0,-0.6,1,2
"385",27,1,2,145,2,0.028733,0,0,-0.7,1491,1,82,92,0,-0.8,4211,1,0,-0.9,1,2
"386",27,1,2,146,2,0.028733,0,0,-0.6,1590,1,68,92,0,-0.8,5311,1,0,-1,1,2
"387",27,1,2,147,2,0.028733,0,0,-0.7,1180,1,82,100,0,-1,7485,1,0,-0.9,1,2
"388",27,1,2,148,2,0.028733,0,0,-0.7,1465,1,82,82,0,-0.7,3080,1,0,-0.7,1,2
"389",27,1,2,149,2,0.028733,1,1,0.7,2006,1,82,82,1,0.7,3671,1,1,0.7,1,2
"390",27,1,2,150,2,0.028733,0,0,-0.7,889,1,82,92,0,-0.8,3250,1,0,-1,1,2
"391",27,1,2,151,2,0.028733,1,1,0.6,872,1,68,82,1,0.7,2997,1,1,0.8,1,2
"392",27,1,2,152,2,0.028733,0,0,-0.7,1088,1,82,92,0,-0.8,3064,1,0,-0.8,1,2
"393",27,1,2,153,2,0.028733,1,1,0.8,1790,1,92,100,1,1,4256,1,1,0.9,1,2
"394",27,1,2,154,2,0.028733,0,1,0.7,1069,0,2,68,0,-0.6,3244,1,0,-0.9,1,2
"395",27,1,2,155,2,0.028733,0,0,-0.7,998,1,82,92,0,-0.8,4648,1,0,-0.8,1,2
"396",27,1,2,156,2,0.028733,1,1,0.7,1020,1,82,92,1,0.8,3175,1,1,0.8,1,2
"397",27,1,2,157,2,0.028733,1,1,0.7,895,1,82,100,1,1,3105,1,1,0.8,1,2
"398",27,1,2,158,2,0.028733,0,0,-0.7,1153,1,82,82,0,-0.7,5128,1,1,0.6,0,2
"399",27,1,2,159,2,0.028733,1,1,0.7,1024,1,82,92,1,0.8,3584,1,1,0.7,1,2
"400",27,1,2,160,2,0.028733,1,1,0.8,2028,1,92,92,1,0.8,3923,1,1,0.6,1,2
"401",27,1,2,161,2,0.028733,0,0,-0.7,1204,1,82,92,0,-0.8,3100,1,0,-0.7,1,2
"402",27,1,2,162,2,0.028733,1,1,0.7,1549,1,82,92,1,0.8,3479,1,1,0.7,1,2
"403",27,1,2,163,2,0.028733,0,1,0.6,1031,0,28,68,0,-0.6,3246,1,0,-0.8,1,2
"404",27,1,2,164,2,0.028733,1,1,0.7,1204,1,82,92,1,0.8,3079,1,1,0.7,1,2
"405",27,1,2,165,2,0.028733,0,1,0.6,851,0,28,68,0,-0.6,3551,1,0,-0.7,1,2
"406",27,1,2,166,2,0.028733,1,1,0.7,982,1,82,92,1,0.8,3483,1,1,0.9,1,2
"407",27,1,2,167,2,0.028733,1,1,0.8,1266,1,92,100,1,1,3176,1,1,0.8,1,2
"408",27,1,2,168,2,0.028733,1,1,0.7,781,1,82,82,1,0.7,3536,1,0,-0.6,0,2
"409",27,1,2,169,2,0.028733,0,0,-0.7,1446,1,82,92,0,-0.8,4701,1,0,-0.8,1,2
"410",27,1,2,170,2,0.028733,0,0,-0.6,923,1,68,68,0,-0.6,2788,1,1,0.6,0,2
"411",27,1,2,171,2,0.028733,0,0,-0.7,1996,1,82,82,0,-0.7,3911,1,0,-0.6,1,2
"412",27,1,2,172,2,0.028733,1,1,0.7,812,1,82,82,1,0.7,2597,1,0,-0.6,0,2
"413",27,1,2,173,2,0.028733,1,1,0.7,798,1,82,100,1,1,3044,1,1,0.8,1,2
"414",27,1,2,174,2,0.028733,1,1,0.7,793,1,82,92,1,0.8,2818,1,1,0.7,1,2
"415",27,1,2,175,2,0.028733,0,0,-0.6,783,1,68,92,0,-0.8,3028,1,0,-1,1,2
"416",27,1,2,176,2,0.028733,1,1,0.7,873,1,82,92,1,0.8,2838,1,1,0.6,1,2
"417",27,1,2,177,2,0.028733,0,0,-0.7,1112,1,82,100,0,-1,3547,1,0,-0.8,1,2
"418",27,1,2,178,2,0.028733,1,1,0.7,895,1,82,92,1,0.8,3786,1,1,0.8,1,2
"419",27,1,2,179,2,0.028733,0,1,0.6,900,0,28,68,0,-0.6,2905,1,0,-0.8,1,2
"420",27,1,2,180,2,0.028733,1,1,0.8,1500,1,92,100,1,1,3605,1,1,0.8,1,2
"421",27,1,2,181,2,0.028733,0,1,0.6,944,0,28,68,0,-0.6,2919,1,0,-0.9,1,2
"422",27,1,2,182,2,0.028733,0,0,-0.7,1122,1,82,92,0,-0.8,3217,1,0,-0.7,1,2
"423",27,1,2,183,2,0.028733,0,0,-0.7,1196,1,82,82,0,-0.7,4026,1,0,-0.6,1,2
"424",27,1,2,184,2,0.028733,1,1,0.8,1417,1,92,100,1,1,4692,1,1,1,1,2
"425",27,1,2,185,2,0.028733,0,0,-0.8,1770,1,92,100,0,-1,3940,1,0,-1,1,2
"426",27,1,2,186,2,0.028733,0,0,-0.6,1378,1,68,68,0,-0.6,3883,1,0,-1,1,2
"427",27,1,2,187,2,0.028733,1,1,0.7,802,1,82,82,1,0.7,3028,1,1,1,1,2
"428",27,1,2,188,2,0.028733,1,1,0.7,1109,1,82,92,1,0.8,3008,1,1,0.8,1,2
"429",27,1,2,189,2,0.028733,1,1,0.8,1435,1,92,82,1,0.7,4900,1,0,-0.6,0,2
"430",27,1,2,190,2,0.028733,1,1,0.7,1152,1,82,92,1,0.8,4382,1,1,0.9,1,2
"431",27,1,2,191,2,0.028733,1,1,0.7,1076,1,82,82,1,0.7,2581,1,1,1,1,2
"432",27,1,2,192,2,0.028733,0,1,0.6,2517,0,28,68,0,-0.6,6247,1,0,-0.7,1,2
"433",27,1,2,193,2,0.028733,0,0,-0.7,1178,1,82,82,0,-0.7,3203,1,1,0.6,0,2
"434",27,1,2,194,2,0.028733,1,1,0.7,1259,1,82,100,1,1,3694,1,1,0.9,1,2
"435",27,1,2,195,2,0.028733,1,1,0.6,671,1,68,92,1,0.8,2601,1,1,1,1,2
"436",27,1,2,196,2,0.028733,0,1,0.6,510,0,28,68,0,-0.6,3396,1,0,-0.9,1,2
"437",27,1,2,197,2,0.028733,1,1,0.8,1096,1,92,92,1,0.8,2956,1,1,0.6,1,2
"438",27,1,2,198,2,0.028733,0,0,-0.7,1338,1,82,82,0,-0.7,3038,1,0,-0.9,1,2
"439",27,1,2,199,2,0.028733,1,1,0.7,1246,1,82,92,1,0.8,4681,1,1,1,1,2
"440",27,1,2,200,2,0.028733,0,0,-0.7,1082,1,82,100,0,-1,3527,1,0,-1,1,2
"441",27,1,2,201,2,0.028733,0,0,-0.6,700,1,68,82,0,-0.7,2491,1,0,-0.7,1,2
"442",27,1,2,202,2,0.028733,0,0,-0.6,932,1,68,82,0,-0.7,3247,1,0,-0.9,1,2
"443",27,1,2,203,2,0.028733,0,0,-0.7,2159,1,82,82,0,-0.7,3559,1,0,-0.7,1,2
"444",27,1,2,204,2,0.028733,0,0,-0.7,1010,1,82,98,0,-0.9,4685,1,0,-1,1,2
"445",27,1,2,205,2,0.028733,1,1,0.7,718,1,82,100,1,1,4463,1,1,0.9,1,2
"446",27,1,2,206,2,0.028733,1,1,0.7,925,1,82,82,1,0.7,2795,1,0,-0.6,0,2
"447",27,1,2,207,2,0.028733,1,1,0.8,1460,1,92,100,1,1,3565,1,1,0.8,1,2
"448",27,1,2,208,2,0.028733,1,1,0.7,783,1,82,100,1,1,2969,1,1,0.9,1,2
"449",27,1,2,209,2,0.028733,1,1,0.8,1047,1,92,100,1,1,3192,1,1,0.8,1,2
"450",27,1,2,210,2,0.028733,1,1,0.7,1027,1,82,100,1,1,3517,1,1,1,1,2
"451",27,1,2,211,2,0.028733,1,1,0.6,1015,1,68,82,1,0.7,3560,1,1,0.7,1,2
"452",27,1,2,212,2,0.028733,0,1,0.6,1053,0,28,68,0,-0.6,3598,1,0,-1,1,2
"453",27,1,2,213,2,0.028733,1,1,0.8,1728,1,92,92,1,0.8,3468,1,1,0.6,1,2
"454",27,1,2,214,2,0.028733,1,1,0.6,1279,1,68,92,1,0.8,3434,1,1,1,1,2
"455",27,1,2,215,2,0.028733,0,1,0.6,886,0,28,68,0,-0.6,4236,1,0,-0.8,1,2
"456",27,1,2,216,2,0.028733,0,0,-0.6,1045,1,68,68,0,-0.6,2860,1,0,-0.7,1,2
"457",27,1,2,217,2,0.028733,0,0,-0.6,838,1,68,68,0,-0.6,2609,1,0,-0.6,1,2
"458",27,1,2,218,2,0.028733,1,1,0.7,1360,1,82,82,1,0.7,2985,1,0,-0.6,0,2
"459",27,1,2,219,2,0.028733,1,1,0.7,1164,1,82,92,1,0.8,3709,1,1,0.7,1,2
"460",27,1,2,220,2,0.028733,0,0,-0.7,797,1,82,100,0,-1,3437,1,0,-1,1,2
"461",27,1,2,221,2,0.028733,0,0,-0.7,925,1,82,100,0,-1,3435,1,0,-1,1,2
"462",27,1,2,222,2,0.028733,0,0,-0.7,978,1,82,98,0,-0.9,3544,1,0,-0.8,1,2
"463",27,1,2,223,2,0.028733,0,0,-0.7,1556,1,82,82,0,-0.7,3276,1,1,0.6,0,2
"464",27,1,2,224,2,0.028733,1,1,0.7,1549,1,82,98,1,0.9,4239,1,1,0.8,1,2
"465",27,1,2,225,2,0.028733,0,0,-0.7,832,1,82,82,0,-0.7,2437,1,0,-0.6,1,2
"466",27,1,2,226,2,0.028733,0,0,-0.7,941,1,82,100,0,-1,3926,1,0,-0.9,1,2
"467",27,1,2,227,2,0.028733,0,0,-0.8,1450,1,92,100,0,-1,3675,1,0,-0.8,1,2
"468",27,1,2,228,2,0.028733,1,1,0.8,1110,1,92,92,1,0.8,3140,1,1,0.7,1,2
"469",27,1,2,229,2,0.028733,0,0,-0.7,1483,1,82,98,0,-0.9,4119,1,0,-0.7,1,2
"470",27,1,2,230,2,0.028733,0,0,-0.6,1024,1,68,92,0,-0.8,4349,1,0,-0.9,1,2
"471",27,1,2,231,2,0.028733,1,1,0.7,870,1,82,100,1,1,3080,1,1,0.9,1,2
"472",27,1,2,232,2,0.028733,1,1,0.6,785,1,68,100,1,1,4010,1,1,0.9,1,2
"473",27,1,2,233,2,0.028733,0,0,-0.8,1044,1,92,100,0,-1,3144,1,0,-0.8,1,2
"474",27,1,2,234,2,0.028733,0,0,-0.7,828,1,82,82,0,-0.7,2483,1,0,-0.6,1,2
"475",27,1,2,235,2,0.028733,0,0,-0.8,1343,1,92,92,0,-0.8,4338,1,1,0.7,0,2
"476",27,1,2,236,2,0.028733,0,0,-0.7,984,1,82,92,0,-0.8,2775,1,0,-0.7,1,2
"477",27,1,2,237,2,0.028733,1,1,0.6,1179,1,68,92,1,0.8,4284,1,1,0.9,1,2
"478",27,1,2,238,2,0.028733,1,1,0.7,932,1,82,100,1,1,3037,1,1,1,1,2
"479",27,1,2,239,2,0.028733,1,1,0.6,590,1,68,100,1,1,3190,1,1,0.9,1,2
"480",27,1,2,240,2,0.028733,1,1,0.7,862,1,82,92,1,0.8,3302,1,1,0.6,1,2
"481",28,0,1,1,2,0.090667,0,1,0.6,3369,0,28,82,0,-0.7,8349,1,0,-0.9,1,3
"482",28,0,1,2,2,0.090667,1,1,1,1873,1,100,100,1,1,7323,1,0,-0.7,0,3
"483",28,0,1,3,2,0.090667,0,1,0.6,2367,0,28,28,1,0.6,11568,0,0,-0.7,1,3
"484",28,0,1,4,2,0.090667,1,1,1,1322,1,100,100,1,1,5833,1,1,0.8,1,3
"485",28,0,1,5,2,0.090667,0,0,-0.6,1194,1,68,100,0,-1,4869,1,0,-1,1,3
"486",28,0,1,6,2,0.090667,1,1,1,1921,1,100,100,1,1,3551,1,1,1,1,3
"487",28,0,1,7,2,0.090667,1,1,1,1292,1,100,100,1,1,2772,1,1,1,1,3
"488",28,0,1,8,2,0.090667,0,1,0.9,2699,0,-62,68,0,-0.6,6394,1,0,-0.8,1,3
"489",28,0,1,9,2,0.090667,0,0,-0.6,2159,1,68,68,0,-0.6,4929,1,0,-0.7,1,3
"490",28,0,1,10,2,0.090667,1,1,1,1053,1,100,100,1,1,2958,1,1,0.8,1,3
"491",28,0,1,11,2,0.090667,1,1,1,1788,1,100,100,1,1,3898,1,1,0.7,1,3
"492",28,0,1,12,2,0.090667,1,1,1,2483,1,100,100,1,1,5408,1,1,0.9,1,3
"493",28,0,1,13,2,0.090667,1,1,1,1616,1,100,100,1,1,4296,1,1,0.6,1,3
"494",28,0,1,14,2,0.090667,1,1,0.9,1738,1,98,100,1,1,3824,1,1,1,1,3
"495",28,0,1,15,2,0.090667,0,0,-0.6,1042,1,68,82,0,-0.7,3373,1,0,-0.8,1,3
"496",28,0,1,16,2,0.090667,1,1,1,1326,1,100,100,1,1,3071,1,1,0.8,1,3
"497",28,0,1,17,2,0.090667,0,0,-0.6,818,1,68,68,0,-0.6,2983,1,1,0.6,0,3
"498",28,0,1,18,2,0.090667,1,1,1,1229,1,100,100,1,1,3829,1,1,0.8,1,3
"499",28,0,1,19,2,0.090667,0,0,-0.6,1009,1,68,82,0,-0.7,3189,1,0,-0.8,1,3
"500",28,0,1,20,2,0.090667,1,1,0.9,1157,1,98,98,1,0.9,3607,1,1,0.6,1,3
"501",28,0,1,21,2,0.090667,1,1,1,1485,1,100,100,1,1,5045,1,1,0.8,1,3
"502",28,0,1,22,2,0.090667,1,1,1,1376,1,100,92,1,0.8,5047,1,0,-0.7,0,3
"503",28,0,1,23,2,0.090667,1,1,1,1504,1,100,100,1,1,2887,1,1,0.9,1,3
"504",28,0,1,24,2,0.090667,1,1,0.6,957,1,68,92,1,0.8,3246,1,1,1,1,3
"505",28,0,1,25,2,0.090667,1,1,0.8,920,1,92,92,1,0.8,3160,1,1,0.6,1,3
"506",28,0,1,26,2,0.090667,1,1,0.6,955,1,68,98,1,0.9,3325,1,1,1,1,3
"507",28,0,1,27,2,0.090667,0,0,-0.8,1369,1,92,82,0,-0.7,4359,1,1,0.7,0,3
"508",28,0,1,28,2,0.090667,0,0,-0.6,822,1,68,98,0,-0.9,3127,1,0,-1,1,3
"509",28,0,1,29,2,0.090667,0,1,0.6,696,0,28,98,0,-0.9,3977,1,0,-1,1,3
"510",28,0,1,30,2,0.090667,1,1,0.9,1185,1,98,100,1,1,3320,1,1,0.9,1,3
"511",28,0,1,31,2,0.090667,0,0,-0.6,865,1,68,92,0,-0.8,2760,1,0,-0.9,1,3
"512",28,0,1,32,2,0.090667,1,1,0.9,1273,1,98,100,1,1,3073,1,1,0.9,1,3
"513",28,0,1,33,2,0.090667,1,1,0.9,1083,1,98,100,1,1,2913,1,1,0.9,1,3
"514",28,0,1,34,2,0.090667,0,0,-0.6,553,1,68,68,0,-0.6,2474,1,0,-0.6,1,3
"515",28,0,1,35,2,0.090667,0,0,-0.6,513,1,68,68,0,-0.6,3443,1,1,0.7,0,3
"516",28,0,1,36,2,0.090667,0,0,-0.8,1017,1,92,98,0,-0.9,2807,1,0,-0.6,1,3
"517",28,0,1,37,2,0.090667,1,0,-0.6,760,0,28,92,1,0.8,3465,1,1,1,1,3
"518",28,0,1,38,2,0.090667,1,0,-0.6,1193,0,28,2,0,-0.7,3258,0,0,-0.6,0,3
"519",28,0,1,39,2,0.090667,0,1,0.6,1946,0,28,68,0,-0.6,4096,1,0,-0.8,1,3
"520",28,0,1,40,2,0.090667,1,1,0.9,1100,1,98,100,1,1,3960,1,1,0.7,1,3
"521",28,0,1,41,2,0.090667,1,0,-0.6,820,0,28,2,0,-0.7,2680,0,0,-0.7,0,3
"522",28,0,1,42,2,0.090667,1,1,0.6,1235,1,68,82,1,0.7,2875,1,1,0.8,1,3
"523",28,0,1,43,2,0.090667,0,0,-0.6,680,1,68,98,0,-0.9,2691,1,0,-1,1,3
"524",28,0,1,44,2,0.090667,0,0,-0.6,1511,1,68,28,1,0.6,3461,0,1,0.7,0,3
"525",28,0,1,45,2,0.090667,0,0,-0.8,1205,1,92,100,0,-1,3245,1,0,-0.9,1,3
"526",28,0,1,46,2,0.090667,1,1,0.7,1183,1,82,100,1,1,3393,1,1,0.9,1,3
"527",28,0,1,47,2,0.090667,1,1,0.6,986,1,68,98,1,0.9,3041,1,1,0.8,1,3
"528",28,0,1,48,2,0.090667,1,1,0.9,927,1,98,100,1,1,3583,1,1,0.6,1,3
"529",28,0,1,49,2,0.090667,0,0,-0.7,880,1,82,100,0,-1,3135,1,0,-1,1,3
"530",28,0,1,50,2,0.090667,0,0,-0.6,615,1,68,98,0,-0.9,2740,1,0,-0.8,1,3
"531",28,0,1,51,2,0.090667,1,1,0.6,569,1,68,68,1,0.6,2899,1,0,-0.6,0,3
"532",28,0,1,52,2,0.090667,1,1,0.8,2206,1,92,100,1,1,4196,1,1,0.9,1,3
"533",28,0,1,53,2,0.090667,1,0,-0.6,798,0,28,92,1,0.8,3617,1,1,0.9,1,3
"534",28,0,1,54,2,0.090667,0,0,-0.7,749,1,82,68,0,-0.6,2844,1,1,0.7,0,3
"535",28,0,1,55,2,0.090667,0,0,-0.9,954,1,98,100,0,-1,3059,1,0,-0.6,1,3
"536",28,0,1,56,2,0.090667,0,0,-0.7,1153,1,82,100,0,-1,3338,1,0,-0.9,1,3
"537",28,0,1,57,2,0.090667,0,0,-0.7,773,1,82,92,0,-0.8,2672,1,0,-0.6,1,3
"538",28,0,1,58,2,0.090667,1,0,-0.6,638,0,28,28,0,-0.6,2223,0,0,-0.6,0,3
"539",28,0,1,59,2,0.090667,0,0,-0.6,515,1,68,82,0,-0.7,2240,1,0,-0.8,1,3
"540",28,0,1,60,2,0.090667,0,0,-0.6,436,1,68,82,0,-0.7,2174,1,0,-0.8,1,3
"541",28,0,1,61,2,0.090667,1,1,0.6,846,1,68,82,1,0.7,2636,1,1,0.7,1,3
"542",28,0,1,62,2,0.090667,0,1,0.7,898,0,2,68,0,-0.6,2983,1,0,-0.9,1,3
"543",28,0,1,63,2,0.090667,1,1,0.7,735,1,82,100,1,1,3035,1,1,1,1,3
"544",28,0,1,64,2,0.090667,0,0,-0.7,743,1,82,100,0,-1,2728,1,0,-1,1,3
"545",28,0,1,65,2,0.090667,0,1,0.6,1443,0,28,28,1,0.6,3193,0,0,-0.6,1,3
"546",28,0,1,66,2,0.090667,0,0,-0.7,753,1,82,68,0,-0.6,2588,1,1,0.6,0,3
"547",28,0,1,67,2,0.090667,0,0,-0.6,705,1,68,68,0,-0.6,2290,1,1,0.6,0,3
"548",28,0,1,68,2,0.090667,1,0,-0.7,743,0,2,68,1,0.6,3358,1,1,0.9,1,3
"549",28,0,1,69,2,0.090667,0,0,-0.9,1064,1,98,100,0,-1,2779,1,0,-0.7,1,3
"550",28,0,1,70,2,0.090667,1,1,0.9,968,1,98,100,1,1,2774,1,1,0.9,1,3
"551",28,0,1,71,2,0.090667,1,0,-0.6,1083,0,28,92,1,0.8,3378,1,1,0.9,1,3
"552",28,0,1,72,2,0.090667,0,0,-0.6,938,1,68,82,0,-0.7,2748,1,0,-0.8,1,3
"553",28,0,1,73,2,0.090667,1,1,0.8,1436,1,92,98,1,0.9,3385,1,1,0.7,1,3
"554",28,0,1,74,2,0.090667,0,0,-0.9,1475,1,98,100,0,-1,3265,1,0,-0.9,1,3
"555",28,0,1,75,2,0.090667,0,1,0.7,1222,0,2,92,0,-0.8,4253,1,0,-1,1,3
"556",28,0,1,76,2,0.090667,0,0,-0.7,1019,1,82,98,0,-0.9,2899,1,0,-0.8,1,3
"557",28,0,1,77,2,0.090667,0,0,-0.7,772,1,82,98,0,-0.9,2957,1,0,-0.7,1,3
"558",28,0,1,78,2,0.090667,1,1,0.6,1043,1,68,98,1,0.9,3313,1,1,0.8,1,3
"559",28,0,1,79,2,0.090667,1,1,0.6,1126,1,68,98,1,0.9,3291,1,1,1,1,3
"560",28,0,1,80,2,0.090667,1,0,-0.6,741,0,28,28,0,-0.6,3446,0,1,0.7,1,3
"561",28,0,1,81,2,0.090667,1,0,-0.7,877,0,2,68,1,0.6,2917,1,1,0.9,1,3
"562",28,0,1,82,2,0.090667,0,0,-0.6,625,1,68,68,0,-0.6,2225,1,1,0.6,0,3
"563",28,0,1,83,2,0.090667,1,1,0.6,852,1,68,98,1,0.9,2877,1,1,1,1,3
"564",28,0,1,84,2,0.090667,1,0,-0.7,849,0,2,2,0,-0.7,2464,0,0,-0.6,0,3
"565",28,0,1,85,2,0.090667,1,0,-0.6,705,0,28,68,1,0.6,2826,1,1,0.8,1,3
"566",28,0,1,86,2,0.090667,0,0,-0.6,980,1,68,82,0,-0.7,2740,1,0,-0.7,1,3
"567",28,0,1,87,2,0.090667,0,0,-0.6,712,1,68,98,0,-0.9,2797,1,0,-0.9,1,3
"568",28,0,1,88,2,0.090667,1,1,0.7,965,1,82,92,1,0.8,2645,1,1,0.6,1,3
"569",28,0,1,89,2,0.090667,1,1,0.8,1195,1,92,100,1,1,2995,1,1,1,1,3
"570",28,0,1,90,2,0.090667,0,0,-0.9,1107,1,98,100,0,-1,2748,1,0,-0.8,1,3
"571",28,0,1,91,2,0.090667,1,1,0.6,2560,1,68,98,1,0.9,5040,1,1,0.8,1,3
"572",28,0,1,92,2,0.090667,1,1,0.9,990,1,98,100,1,1,2805,1,1,0.8,1,3
"573",28,0,1,93,2,0.090667,0,0,-0.7,1161,1,82,100,0,-1,3511,1,0,-0.9,1,3
"574",28,0,1,94,2,0.090667,1,1,0.7,686,1,82,92,1,0.8,2596,1,1,0.6,1,3
"575",28,0,1,95,2,0.090667,1,1,0.8,777,1,92,100,1,1,2767,1,1,0.8,1,3
"576",28,0,1,96,2,0.090667,1,0,-0.6,906,0,28,2,0,-0.7,2801,0,0,-0.6,0,3
"577",28,0,1,97,2,0.090667,0,0,-0.7,809,1,82,68,0,-0.6,2929,1,1,0.6,0,3
"578",28,0,1,98,2,0.090667,0,0,-0.7,1271,1,82,92,0,-0.8,2981,1,0,-0.6,1,3
"579",28,0,1,99,2,0.090667,0,0,-0.6,573,1,68,98,0,-0.9,3979,1,0,-0.9,1,3
"580",28,0,1,100,2,0.090667,0,0,-0.7,654,1,82,98,0,-0.9,2614,1,0,-0.8,1,3
"581",28,0,1,101,2,0.090667,0,0,-0.6,620,1,68,100,0,-1,3045,1,0,-1,1,3
"582",28,0,1,102,2,0.090667,0,1,0.7,858,0,2,98,0,-0.9,3378,1,0,-1,1,3
"583",28,0,1,103,2,0.090667,1,1,0.7,808,1,82,100,1,1,2958,1,1,1,1,3
"584",28,0,1,104,2,0.090667,1,0,-0.6,587,0,28,28,0,-0.6,2268,0,1,0.6,1,3
"585",28,0,1,105,2,0.090667,0,0,-0.8,794,1,92,98,0,-0.9,2594,1,0,-0.7,1,3
"586",28,0,1,106,2,0.090667,0,1,0.6,544,0,28,68,0,-0.6,2454,1,0,-0.7,1,3
"587",28,0,1,107,2,0.090667,1,1,0.8,833,1,92,98,1,0.9,2613,1,1,0.7,1,3
"588",28,0,1,108,2,0.090667,1,1,0.6,995,1,68,68,1,0.6,2660,1,0,-0.6,0,3
"589",28,0,1,109,2,0.090667,0,0,-0.7,624,1,82,98,0,-0.9,2429,1,0,-0.9,1,3
"590",28,0,1,110,2,0.090667,0,1,0.6,636,0,28,92,0,-0.8,3446,1,0,-0.9,1,3
"591",28,0,1,111,2,0.090667,0,0,-0.9,848,1,98,100,0,-1,2758,1,0,-1,1,3
"592",28,0,1,112,2,0.090667,0,1,0.6,681,0,28,92,0,-0.8,2812,1,0,-0.9,1,3
"593",28,0,1,113,2,0.090667,0,0,-0.9,1215,1,98,28,1,0.6,5900,0,1,0.7,0,3
"594",28,0,1,114,2,0.090667,0,0,-0.9,935,1,98,100,0,-1,2791,1,0,-0.7,1,3
"595",28,0,1,115,2,0.090667,0,0,-0.6,1123,1,68,98,0,-0.9,3208,1,0,-1,1,3
"596",28,0,1,116,2,0.090667,0,1,0.6,746,0,28,68,0,-0.6,2866,1,0,-0.8,1,3
"597",28,0,1,117,2,0.090667,0,1,0.6,788,0,28,98,0,-0.9,3128,1,0,-1,1,3
"598",28,0,1,118,2,0.090667,1,1,0.9,837,1,98,68,1,0.6,3422,1,0,-0.7,0,3
"599",28,0,1,119,2,0.090667,1,1,0.9,865,1,98,100,1,1,2516,1,1,0.7,1,3
"600",28,0,1,120,2,0.090667,1,1,0.9,960,1,98,100,1,1,2600,1,1,1,1,3
"601",28,0,2,121,1,0.090667,1,1,0.8,976,1,92,100,1,1,3601,1,1,0.7,1,3
"602",28,0,2,122,1,0.090667,0,1,0.6,657,0,28,-28,1,0.8,2617,0,1,0.7,0,3
"603",28,0,2,123,1,0.090667,0,0,-0.7,979,1,82,100,0,-1,3379,1,0,-1,1,3
"604",28,0,2,124,1,0.090667,0,0,-0.6,633,1,68,98,0,-0.9,3118,1,0,-0.8,1,3
"605",28,0,2,125,1,0.090667,0,1,0.7,1196,0,2,2,1,0.7,3197,0,0,-0.7,1,3
"606",28,0,2,126,1,0.090667,0,0,-0.8,1015,1,92,100,0,-1,3110,1,0,-1,1,3
"607",28,0,2,127,1,0.090667,0,0,-0.6,716,1,68,100,0,-1,2741,1,0,-1,1,3
"608",28,0,2,128,1,0.090667,1,1,0.6,1168,1,68,100,1,1,4093,1,1,0.9,1,3
"609",28,0,2,129,1,0.090667,1,1,0.7,753,1,82,92,1,0.8,2528,1,1,0.7,1,3
"610",28,0,2,130,1,0.090667,0,0,-0.6,808,1,68,82,0,-0.7,2434,1,0,-0.8,1,3
"611",28,0,2,131,1,0.090667,0,1,0.7,602,0,2,-62,1,0.9,2397,0,1,0.8,0,3
"612",28,0,2,132,1,0.090667,1,1,0.6,468,1,68,82,1,0.7,2253,1,1,0.7,1,3
"613",28,0,2,133,1,0.090667,0,0,-0.6,508,1,68,92,0,-0.8,2723,1,0,-0.9,1,3
"614",28,0,2,134,1,0.090667,1,1,0.7,703,1,82,100,1,1,2763,1,1,1,1,3
"615",28,0,2,135,1,0.090667,0,0,-0.6,631,1,68,68,0,-0.6,2232,1,1,0.6,0,3
"616",28,0,2,136,1,0.090667,1,1,0.6,470,1,68,92,1,0.8,2645,1,1,1,1,3
"617",28,0,2,137,1,0.090667,0,0,-0.6,512,1,68,2,1,0.7,2615,0,1,0.9,0,3
"618",28,0,2,138,1,0.090667,1,1,1,2122,1,100,92,1,0.8,4518,1,0,-0.7,0,3
"619",28,0,2,139,1,0.090667,1,1,1,1426,1,100,92,1,0.8,4201,1,0,-0.9,0,3
"620",28,0,2,140,1,0.090667,1,1,1,1475,1,100,100,1,1,13781,1,1,0.6,1,3
"621",28,0,2,141,1,0.090667,0,0,-0.8,890,1,92,100,0,-1,2795,1,0,-0.7,1,3
"622",28,0,2,142,1,0.090667,1,1,0.8,1021,1,92,92,1,0.8,3286,1,0,-0.7,0,3
"623",28,0,2,143,1,0.090667,1,1,0.9,1604,1,98,100,1,1,3444,1,1,0.8,1,3
"624",28,0,2,144,1,0.090667,0,0,-0.9,891,1,98,92,0,-0.8,2891,1,1,0.9,0,3
"625",28,0,2,145,1,0.090667,0,0,-0.7,922,1,82,98,0,-0.9,2977,1,0,-0.8,1,3
"626",28,0,2,146,1,0.090667,1,1,0.8,739,1,92,92,1,0.8,2799,1,0,-0.7,0,3
"627",28,0,2,147,1,0.090667,0,0,-0.6,695,1,68,92,0,-0.8,2550,1,0,-0.7,1,3
"628",28,0,2,148,1,0.090667,1,1,0.8,933,1,92,100,1,1,2808,1,1,0.9,1,3
"629",28,0,2,149,1,0.090667,1,1,0.9,770,1,98,98,1,0.9,2561,1,0,-0.8,0,3
"630",28,0,2,150,1,0.090667,0,1,0.6,607,0,28,82,0,-0.7,3392,1,0,-1,1,3
"631",28,0,2,151,1,0.090667,0,1,0.6,520,0,28,28,1,0.6,2120,0,0,-0.6,1,3
"632",28,0,2,152,1,0.090667,0,0,-0.7,657,1,82,82,0,-0.7,2742,1,0,-0.6,1,3
"633",28,0,2,153,1,0.090667,1,1,0.7,641,1,82,98,1,0.9,2491,1,1,0.8,1,3
"634",28,0,2,154,1,0.090667,1,1,0.7,689,1,82,82,1,0.7,2435,1,0,-0.7,0,3
"635",28,0,2,155,1,0.090667,0,0,-0.8,841,1,92,92,0,-0.8,3371,1,0,-0.6,1,3
"636",28,0,2,156,1,0.090667,0,0,-0.7,1097,1,82,82,0,-0.7,6188,1,0,-0.7,1,3
"637",28,0,2,157,1,0.090667,1,1,0.8,850,1,92,92,1,0.8,2670,1,1,0.6,1,3
"638",28,0,2,158,1,0.090667,0,0,-0.8,1005,1,92,92,0,-0.8,3620,1,1,1,0,3
"639",28,0,2,159,1,0.090667,0,0,-0.8,1065,1,92,92,0,-0.8,2625,1,0,-0.8,1,3
"640",28,0,2,160,1,0.090667,1,1,0.9,1107,1,98,98,1,0.9,4407,1,0,-0.9,0,3
"641",28,0,2,161,1,0.090667,1,0,-0.6,705,0,28,28,0,-0.6,2380,0,1,0.8,1,3
"642",28,0,2,162,1,0.090667,1,1,0.9,975,1,98,98,1,0.9,4360,1,0,-0.8,0,3
"643",28,0,2,163,1,0.090667,1,1,0.7,1021,1,82,82,1,0.7,3932,1,1,0.7,1,3
"644",28,0,2,164,1,0.090667,1,1,0.6,1153,1,68,68,1,0.6,3188,1,0,-0.7,0,3
"645",28,0,2,165,1,0.090667,0,0,-0.9,1372,1,98,98,0,-0.9,3147,1,1,0.7,0,3
"646",28,0,2,166,1,0.090667,1,1,0.9,926,1,98,98,1,0.9,2566,1,1,0.8,1,3
"647",28,0,2,167,1,0.090667,1,0,-0.6,477,0,28,28,0,-0.6,2142,0,1,0.6,1,3
"648",28,0,2,168,1,0.090667,0,0,-0.8,738,1,92,98,0,-0.9,3173,1,0,-1,1,3
"649",28,0,2,169,1,0.090667,0,1,0.6,519,0,28,28,1,0.6,2154,0,0,-0.6,1,3
"650",28,0,2,170,1,0.090667,0,0,-0.7,1125,1,82,28,1,0.6,3670,0,1,1,0,3
"651",28,0,2,171,1,0.090667,0,0,-0.6,498,1,68,68,0,-0.6,2698,1,1,0.9,0,3
"652",28,0,2,172,1,0.090667,0,0,-1,1475,1,100,100,0,-1,2765,1,0,-1,1,3
"653",28,0,2,173,1,0.090667,1,1,0.9,844,1,98,98,1,0.9,2509,1,1,0.6,1,3
"654",28,0,2,174,1,0.090667,0,0,-0.6,683,1,68,82,0,-0.7,2328,1,0,-0.8,1,3
"655",28,0,2,175,1,0.090667,0,0,-0.8,1092,1,92,98,0,-0.9,2747,1,0,-0.9,1,3
"656",28,0,2,176,1,0.090667,1,1,0.9,1382,1,98,98,1,0.9,3153,1,0,-0.9,0,3
"657",28,0,2,177,1,0.090667,1,0,-0.6,729,0,28,28,0,-0.6,2689,0,1,0.7,1,3
"658",28,0,2,178,1,0.090667,1,1,0.6,1042,1,68,68,1,0.6,2607,1,0,-0.6,0,3
"659",28,0,2,179,1,0.090667,0,0,-0.7,612,1,82,82,0,-0.7,2222,1,0,-0.6,1,3
"660",28,0,2,180,1,0.090667,0,1,0.6,458,0,28,68,0,-0.6,2788,1,0,-0.7,1,3
"661",28,0,2,181,1,0.090667,1,1,0.9,1968,1,98,98,1,0.9,3683,1,0,-0.6,0,3
"662",28,0,2,182,1,0.090667,0,0,-0.9,1009,1,98,98,0,-0.9,2744,1,1,0.6,0,3
"663",28,0,2,183,1,0.090667,0,0,-0.9,1140,1,98,98,0,-0.9,2965,1,1,0.8,0,3
"664",28,0,2,184,1,0.090667,0,0,-0.9,1085,1,98,98,0,-0.9,3711,1,1,1,0,3
"665",28,0,2,185,1,0.090667,0,0,-0.9,1039,1,98,100,0,-1,3264,1,0,-1,1,3
"666",28,0,2,186,1,0.090667,1,1,0.9,1116,1,98,98,1,0.9,2821,1,0,-0.8,0,3
"667",28,0,2,187,1,0.090667,0,0,-0.9,978,1,98,98,0,-0.9,2753,1,1,0.9,0,3
"668",28,0,2,188,1,0.090667,1,1,0.9,930,1,98,98,1,0.9,2545,1,0,-0.6,0,3
"669",28,0,2,189,1,0.090667,1,1,0.9,985,1,98,98,1,0.9,2566,1,0,-0.9,0,3
"670",28,0,2,190,1,0.090667,1,1,0.7,852,1,82,82,1,0.7,2427,1,1,0.8,1,3
"671",28,0,2,191,1,0.090667,0,0,-0.8,836,1,92,92,0,-0.8,2466,1,1,1,0,3
"672",28,0,2,192,1,0.090667,1,1,0.8,1138,1,92,98,1,0.9,2998,1,1,0.9,1,3
"673",28,0,2,193,1,0.090667,1,1,0.6,547,1,68,82,1,0.7,2297,1,1,1,1,3
"674",28,0,2,194,1,0.090667,1,1,0.8,1364,1,92,92,1,0.8,4610,1,1,0.8,1,3
"675",28,0,2,195,1,0.090667,0,0,-0.9,1033,1,98,98,0,-0.9,2648,1,1,1,0,3
"676",28,0,2,196,1,0.090667,0,0,-0.9,1182,1,98,98,0,-0.9,2817,1,0,-0.7,1,3
"677",28,0,2,197,1,0.090667,1,1,0.7,775,1,82,82,1,0.7,3550,1,0,-0.9,0,3
"678",28,0,2,198,1,0.090667,1,1,0.9,1073,1,98,98,1,0.9,2863,1,1,0.6,1,3
"679",28,0,2,199,1,0.090667,1,1,0.7,990,1,82,92,1,0.8,3316,1,1,1,1,3
"680",28,0,2,200,1,0.090667,1,1,0.6,915,1,68,68,1,0.6,2555,1,0,-0.9,0,3
"681",28,0,2,201,1,0.090667,1,1,0.6,949,1,68,68,1,0.6,2879,1,1,0.9,1,3
"682",28,0,2,202,1,0.090667,0,0,-0.6,517,1,68,68,0,-0.6,2152,1,0,-0.8,1,3
"683",28,0,2,203,1,0.090667,1,1,0.8,842,1,92,92,1,0.8,2632,1,1,0.8,1,3
"684",28,0,2,204,1,0.090667,0,0,-0.8,936,1,92,98,0,-0.9,2881,1,0,-1,1,3
"685",28,0,2,205,1,0.090667,1,1,0.8,953,1,92,92,1,0.8,2593,1,1,0.7,1,3
"686",28,0,2,206,1,0.090667,0,0,-0.8,1236,1,92,98,0,-0.9,3121,1,0,-1,1,3
"687",28,0,2,207,1,0.090667,1,1,0.6,750,1,68,68,1,0.6,3016,1,0,-0.6,0,3
"688",28,0,2,208,1,0.090667,1,1,0.7,790,1,82,92,1,0.8,3790,1,1,0.8,1,3
"689",28,0,2,209,1,0.090667,0,0,-0.7,681,1,82,82,0,-0.7,2331,1,0,-0.7,1,3
"690",28,0,2,210,1,0.090667,1,1,0.7,680,1,82,82,1,0.7,2680,1,1,1,1,3
"691",28,0,2,211,1,0.090667,0,0,-0.8,856,1,92,92,0,-0.8,2561,1,0,-0.8,1,3
"692",28,0,2,212,1,0.090667,1,1,0.8,678,1,92,92,1,0.8,2458,1,0,-1,0,3
"693",28,0,2,213,1,0.090667,0,0,-0.8,877,1,92,92,0,-0.8,2667,1,0,-1,1,3
"694",28,0,2,214,1,0.090667,0,0,-0.6,1772,1,68,68,0,-0.6,3402,1,1,0.9,0,3
"695",28,0,2,215,1,0.090667,0,0,-0.8,936,1,92,92,0,-0.8,2966,1,0,-0.6,1,3
"696",28,0,2,216,1,0.090667,0,0,-0.8,867,1,92,92,0,-0.8,2907,1,1,0.6,0,3
"697",28,0,2,217,1,0.090667,1,1,1,1096,1,100,100,1,1,2612,1,1,0.9,1,3
"698",28,0,2,218,1,0.090667,1,1,0.8,870,1,92,92,1,0.8,2580,1,0,-1,0,3
"699",28,0,2,219,1,0.090667,0,0,-0.9,980,1,98,98,0,-0.9,2595,1,0,-0.8,1,3
"700",28,0,2,220,1,0.090667,0,0,-0.7,693,1,82,82,0,-0.7,2428,1,0,-0.9,1,3
"701",28,0,2,221,1,0.090667,1,1,0.7,858,1,82,82,1,0.7,3593,1,0,-0.8,0,3
"702",28,0,2,222,1,0.090667,0,0,-0.6,599,1,68,68,0,-0.6,1999,1,0,-0.6,1,3
"703",28,0,2,223,1,0.090667,1,1,0.9,1052,1,98,100,1,1,3157,1,1,1,1,3
"704",28,0,2,224,1,0.090667,1,0,-0.6,1315,0,28,28,0,-0.6,2905,0,1,0.6,1,3
"705",28,0,2,225,1,0.090667,0,1,0.9,1036,0,-62,-62,1,0.9,2341,0,1,0.9,0,3
"706",28,0,2,226,1,0.090667,0,0,-0.9,960,1,98,98,0,-0.9,2425,1,0,-0.9,1,3
"707",28,0,2,227,1,0.090667,1,1,0.9,1039,1,98,98,1,0.9,2664,1,1,0.6,1,3
"708",28,0,2,228,1,0.090667,0,0,-0.9,995,1,98,98,0,-0.9,2515,1,0,-0.9,1,3
"709",28,0,2,229,1,0.090667,0,0,-0.9,1035,1,98,98,0,-0.9,2800,1,1,0.7,0,3
"710",28,0,2,230,1,0.090667,1,1,0.9,855,1,98,98,1,0.9,2470,1,0,-0.6,0,3
"711",28,0,2,231,1,0.090667,0,0,-0.9,824,1,98,98,0,-0.9,2604,1,1,0.7,0,3
"712",28,0,2,232,1,0.090667,0,0,-0.6,550,1,68,68,0,-0.6,2150,1,1,0.7,0,3
"713",28,0,2,233,1,0.090667,1,1,0.7,642,1,82,82,1,0.7,2188,1,1,0.6,1,3
"714",28,0,2,234,1,0.090667,1,1,0.7,720,1,82,82,1,0.7,2256,1,1,0.9,1,3
"715",28,0,2,235,1,0.090667,0,0,-0.8,776,1,92,92,0,-0.8,2881,1,1,1,0,3
"716",28,0,2,236,1,0.090667,1,1,0.8,864,1,92,92,1,0.8,2474,1,1,0.8,1,3
"717",28,0,2,237,1,0.090667,1,1,0.9,1067,1,98,98,1,0.9,2797,1,1,0.6,1,3
"718",28,0,2,238,1,0.090667,0,0,-0.9,1062,1,98,98,0,-0.9,3237,1,1,0.8,0,3
"719",28,0,2,239,1,0.090667,1,1,0.9,1419,1,98,98,1,0.9,3184,1,1,0.7,1,3
"720",28,0,2,240,1,0.090667,1,1,0.9,1064,1,98,98,1,0.9,3184,1,0,-0.9,0,3
"721",23,1,1,1,1,0.115,0,0,-0.7,2473,1,82,82,0,-0.7,9394,1,1,0.7,0,4
"722",23,1,1,2,1,0.115,0,0,-0.7,1793,1,82,82,0,-0.7,4853,1,0,-0.6,1,4
"723",23,1,1,3,1,0.115,1,0,-0.6,1135,0,28,2,0,-0.7,5125,0,0,-0.6,0,4
"724",23,1,1,4,1,0.115,0,0,-0.7,1299,1,82,82,0,-0.7,5994,1,1,0.9,0,4
"725",23,1,1,5,1,0.115,0,0,-0.6,1993,1,68,68,0,-0.6,7129,1,1,1,0,4
"726",23,1,1,6,1,0.115,0,0,-0.6,2631,1,68,82,0,-0.7,4727,1,0,-0.8,1,4
"727",23,1,1,7,1,0.115,1,0,-0.7,1080,0,2,2,0,-0.7,2885,0,1,0.7,1,4
"728",23,1,1,8,1,0.115,1,1,0.7,1074,1,82,82,1,0.7,3114,1,0,-0.7,0,4
"729",23,1,1,9,1,0.115,1,0,-0.7,859,0,2,2,0,-0.7,2254,0,1,0.9,1,4
"730",23,1,1,10,1,0.115,1,1,0.7,896,1,82,82,1,0.7,2561,1,0,-1,0,4
"731",23,1,1,11,1,0.115,0,1,0.7,1065,0,2,-28,1,0.8,3876,0,1,0.8,0,4
"732",23,1,1,12,1,0.115,0,1,0.7,968,0,2,2,1,0.7,2353,0,0,-0.6,1,4
"733",23,1,1,13,1,0.115,1,1,0.6,2843,1,68,68,1,0.6,4528,1,1,0.8,1,4
"734",23,1,1,14,1,0.115,0,1,0.6,1176,0,28,-28,1,0.8,3936,0,1,0.9,0,4
"735",23,1,1,15,1,0.115,0,0,-0.6,1033,1,68,82,0,-0.7,2618,1,0,-0.7,1,4
"736",23,1,1,16,1,0.115,1,0,-0.6,1005,0,28,28,0,-0.6,2461,0,1,0.7,1,4
"737",23,1,1,17,1,0.115,0,1,0.7,919,0,2,2,1,0.7,2359,0,0,-1,1,4
"738",23,1,1,18,1,0.115,0,1,0.7,1086,0,2,2,1,0.7,4326,0,0,-1,1,4
"739",23,1,1,19,1,0.115,1,0,-0.6,817,0,28,2,0,-0.7,2377,0,0,-0.7,0,4
"740",23,1,1,20,1,0.115,0,1,0.6,2400,0,28,2,1,0.7,4435,0,1,0.6,0,4
"741",23,1,1,21,1,0.115,0,1,0.6,774,0,28,28,1,0.6,2825,0,0,-0.8,1,4
"742",23,1,1,22,1,0.115,1,0,-0.6,891,0,28,-28,0,-0.8,3251,0,0,-0.9,0,4
"743",23,1,1,23,1,0.115,1,0,-0.6,1439,0,28,82,1,0.7,3959,1,1,1,1,4
"744",23,1,1,24,1,0.115,0,0,-0.6,1160,1,68,92,0,-0.8,3860,1,0,-0.9,1,4
"745",23,1,1,25,1,0.115,0,0,-0.7,876,1,82,92,0,-0.8,2811,1,0,-0.7,1,4
"746",23,1,1,26,1,0.115,0,0,-0.7,923,1,82,92,0,-0.8,2698,1,0,-0.6,1,4
"747",23,1,1,27,1,0.115,0,0,-0.6,1748,1,68,82,0,-0.7,3973,1,0,-0.7,1,4
"748",23,1,1,28,1,0.115,0,0,-0.6,782,1,68,68,0,-0.6,4048,1,1,0.7,0,4
"749",23,1,1,29,1,0.115,0,0,-0.7,1150,1,82,82,0,-0.7,2975,1,0,-0.7,1,4
"750",23,1,1,30,1,0.115,0,0,-0.7,789,1,82,92,0,-0.8,2669,1,0,-1,1,4
"751",23,1,1,31,1,0.115,0,0,-0.7,1584,1,82,92,0,-0.8,3442,1,0,-0.9,1,4
"752",23,1,1,32,1,0.115,0,0,-0.7,823,1,82,82,0,-0.7,2563,1,1,0.6,0,4
"753",23,1,1,33,1,0.115,1,0,-0.7,852,0,2,2,0,-0.7,2822,0,0,-0.9,0,4
"754",23,1,1,34,1,0.115,0,0,-0.8,1610,1,92,92,0,-0.8,3075,1,0,-0.8,1,4
"755",23,1,1,35,1,0.115,1,1,0.8,1147,1,92,82,1,0.7,3288,1,0,-0.8,0,4
"756",23,1,1,36,1,0.115,0,1,0.7,770,0,2,28,1,0.6,2800,0,0,-1,1,4
"757",23,1,1,37,1,0.115,1,0,-0.6,1006,0,28,28,0,-0.6,2556,0,0,-0.8,0,4
"758",23,1,1,38,1,0.115,0,0,-0.7,847,1,82,92,0,-0.8,2642,1,0,-0.8,1,4
"759",23,1,1,39,1,0.115,1,0,-0.7,1855,0,2,2,0,-0.7,3390,0,1,0.8,1,4
"760",23,1,1,40,1,0.115,0,0,-0.7,738,1,82,82,0,-0.7,2163,1,0,-0.7,1,4
"761",23,1,1,41,1,0.115,1,0,-0.7,1902,0,2,28,0,-0.6,4282,0,1,1,1,4
"762",23,1,1,42,1,0.115,1,1,0.7,765,1,82,92,1,0.8,2735,1,1,0.6,1,4
"763",23,1,1,43,1,0.115,1,1,0.7,1751,1,82,82,1,0.7,3826,1,0,-0.9,0,4
"764",23,1,1,44,1,0.115,0,1,0.7,703,0,2,2,1,0.7,2343,0,0,-0.6,1,4
"765",23,1,1,45,1,0.115,0,0,-0.7,905,1,82,92,0,-0.8,3345,1,0,-0.6,1,4
"766",23,1,1,46,1,0.115,1,0,-0.6,1025,0,28,68,1,0.6,4095,1,1,0.8,1,4
"767",23,1,1,47,1,0.115,0,0,-0.6,834,1,68,28,1,0.6,2879,0,1,0.7,0,4
"768",23,1,1,48,1,0.115,0,1,0.6,728,0,28,2,1,0.7,2968,0,1,0.9,0,4
"769",23,1,1,49,1,0.115,1,1,0.6,1061,1,68,28,0,-0.6,3216,0,0,-0.7,0,4
"770",23,1,1,50,1,0.115,0,1,0.6,818,0,28,28,1,0.6,4419,0,1,0.6,0,4
"771",23,1,1,51,1,0.115,1,0,-0.6,1672,0,28,68,1,0.6,3702,1,1,0.7,1,4
"772",23,1,1,52,1,0.115,1,1,0.7,1353,1,82,68,1,0.6,3093,1,0,-0.7,0,4
"773",23,1,1,53,1,0.115,1,1,0.6,952,1,68,82,1,0.7,2932,1,1,1,1,4
"774",23,1,1,54,1,0.115,1,1,0.8,1265,1,92,92,1,0.8,3775,1,1,0.6,1,4
"775",23,1,1,55,1,0.115,0,0,-0.6,956,1,68,82,0,-0.7,3261,1,0,-1,1,4
"776",23,1,1,56,1,0.115,1,1,0.6,871,1,68,92,1,0.8,3036,1,1,1,1,4
"777",23,1,1,57,1,0.115,1,1,0.7,998,1,82,92,1,0.8,2798,1,1,0.8,1,4
"778",23,1,1,58,1,0.115,1,1,0.8,1292,1,92,82,1,0.7,3402,1,0,-0.8,0,4
"779",23,1,1,59,1,0.115,1,1,0.7,785,1,82,92,1,0.8,3360,1,1,0.9,1,4
"780",23,1,1,60,1,0.115,0,1,0.7,721,0,2,-28,1,0.8,3601,0,1,0.9,0,4
"781",23,1,1,61,1,0.115,0,0,-0.7,922,1,82,82,0,-0.7,2552,1,0,-0.9,1,4
"782",23,1,1,62,1,0.115,1,0,-0.6,772,0,28,28,0,-0.6,2177,0,1,0.8,1,4
"783",23,1,1,63,1,0.115,1,1,0.7,937,1,82,82,1,0.7,3997,1,1,0.7,1,4
"784",23,1,1,64,1,0.115,1,1,0.7,1014,1,82,68,1,0.6,3174,1,0,-0.9,0,4
"785",23,1,1,65,1,0.115,0,1,0.7,954,0,2,-28,1,0.8,3164,0,1,0.9,0,4
"786",23,1,1,66,1,0.115,1,1,0.7,1084,1,82,82,1,0.7,2604,1,1,0.7,1,4
"787",23,1,1,67,1,0.115,1,1,0.6,645,1,68,82,1,0.7,2775,1,1,0.8,1,4
"788",23,1,1,68,1,0.115,0,1,0.7,1182,0,2,2,1,0.7,3072,0,0,-0.9,1,4
"789",23,1,1,69,1,0.115,0,1,0.7,678,0,2,28,1,0.6,2263,0,0,-0.9,1,4
"790",23,1,1,70,1,0.115,0,0,-0.7,882,1,82,68,0,-0.6,3027,1,1,0.6,0,4
"791",23,1,1,71,1,0.115,0,1,0.6,782,0,28,28,1,0.6,2317,0,0,-0.6,1,4
"792",23,1,1,72,1,0.115,0,0,-0.7,798,1,82,82,0,-0.7,2494,1,1,1,0,4
"793",23,1,1,73,1,0.115,1,0,-0.7,902,0,2,2,0,-0.7,2612,0,0,-0.6,0,4
"794",23,1,1,74,1,0.115,1,1,0.7,939,1,82,82,1,0.7,4194,1,1,1,1,4
"795",23,1,1,75,1,0.115,0,1,0.8,1396,0,-28,-62,1,0.9,3236,0,1,1,0,4
"796",23,1,1,76,1,0.115,1,1,0.7,926,1,82,68,1,0.6,3036,1,0,-1,0,4
"797",23,1,1,77,1,0.115,0,1,0.6,1106,0,28,28,1,0.6,2992,0,0,-1,1,4
"798",23,1,1,78,1,0.115,0,0,-0.7,1035,1,82,92,0,-0.8,3155,1,0,-0.8,1,4
"799",23,1,1,79,1,0.115,1,1,0.6,673,1,68,68,1,0.6,2453,1,1,0.6,1,4
"800",23,1,1,80,1,0.115,0,1,0.7,805,0,2,28,1,0.6,2750,0,0,-0.6,1,4
"801",23,1,1,81,1,0.115,1,0,-0.6,712,0,28,28,0,-0.6,3462,0,1,1,1,4
"802",23,1,1,82,1,0.115,0,0,-0.6,792,1,68,82,0,-0.7,2743,1,0,-0.9,1,4
"803",23,1,1,83,1,0.115,0,0,-0.6,742,1,68,82,0,-0.7,3492,1,0,-0.9,1,4
"804",23,1,1,84,1,0.115,1,0,-0.7,875,0,2,28,0,-0.6,3035,0,1,0.6,1,4
"805",23,1,1,85,1,0.115,1,0,-0.6,1277,0,28,68,1,0.6,3807,1,1,0.7,1,4
"806",23,1,1,86,1,0.115,0,0,-0.6,1225,1,68,68,0,-0.6,2680,1,1,0.6,0,4
"807",23,1,1,87,1,0.115,0,0,-0.6,925,1,68,68,0,-0.6,2381,1,1,0.8,0,4
"808",23,1,1,88,1,0.115,1,0,-0.7,1069,0,2,2,0,-0.7,2554,0,1,0.9,1,4
"809",23,1,1,89,1,0.115,1,1,0.6,1408,1,68,68,1,0.6,2763,1,0,-1,0,4
"810",23,1,1,90,1,0.115,1,1,0.7,728,1,82,82,1,0.7,2488,1,1,0.9,1,4
"811",23,1,1,91,1,0.115,1,1,0.7,1217,1,82,92,1,0.8,2952,1,1,1,1,4
"812",23,1,1,92,1,0.115,0,0,-0.7,897,1,82,82,0,-0.7,2458,1,1,0.8,0,4
"813",23,1,1,93,1,0.115,1,0,-0.7,1071,0,2,2,0,-0.7,2666,0,1,1,1,4
"814",23,1,1,94,1,0.115,0,0,-0.6,836,1,68,68,0,-0.6,3901,1,1,0.6,0,4
"815",23,1,1,95,1,0.115,0,0,-0.8,1551,1,92,98,0,-0.9,3951,1,0,-0.9,1,4
"816",23,1,1,96,1,0.115,1,0,-0.8,1105,0,-28,28,0,-0.6,3620,0,1,0.6,1,4
"817",23,1,1,97,1,0.115,0,0,-0.7,2019,1,82,92,0,-0.8,3809,1,0,-1,1,4
"818",23,1,1,98,1,0.115,1,0,-0.8,1226,0,-28,2,0,-0.7,3036,0,1,0.8,1,4
"819",23,1,1,99,1,0.115,0,0,-0.8,1488,1,92,92,0,-0.8,3074,1,0,-0.6,1,4
"820",23,1,1,100,1,0.115,0,0,-0.7,1066,1,82,92,0,-0.8,3191,1,0,-0.8,1,4
"821",23,1,1,101,1,0.115,1,1,0.6,1703,1,68,68,1,0.6,4173,1,0,-0.7,0,4
"822",23,1,1,102,1,0.115,0,0,-0.6,939,1,68,82,0,-0.7,3609,1,0,-1,1,4
"823",23,1,1,103,1,0.115,1,1,0.6,1675,1,68,82,1,0.7,3815,1,1,0.7,1,4
"824",23,1,1,104,1,0.115,1,1,0.6,1551,1,68,68,1,0.6,3201,1,1,0.8,1,4
"825",23,1,1,105,1,0.115,0,0,-0.7,888,1,82,92,0,-0.8,2788,1,0,-0.8,1,4
"826",23,1,1,106,1,0.115,1,1,0.7,1770,1,82,82,1,0.7,3395,1,0,-0.6,0,4
"827",23,1,1,107,1,0.115,0,0,-0.7,815,1,82,92,0,-0.8,3390,1,0,-0.7,1,4
"828",23,1,1,108,1,0.115,1,0,-0.7,1125,0,2,2,0,-0.7,3000,0,1,0.6,1,4
"829",23,1,1,109,1,0.115,1,1,0.7,1051,1,82,68,1,0.6,3546,1,0,-0.8,0,4
"830",23,1,1,110,1,0.115,1,0,-0.7,1076,0,2,28,0,-0.6,3576,0,1,1,1,4
"831",23,1,1,111,1,0.115,1,1,0.6,1853,1,68,68,1,0.6,3474,1,1,0.8,1,4
"832",23,1,1,112,1,0.115,0,0,-0.6,861,1,68,68,0,-0.6,2511,1,1,0.9,0,4
"833",23,1,1,113,1,0.115,1,1,0.7,1121,1,82,82,1,0.7,3961,1,0,-0.6,0,4
"834",23,1,1,114,1,0.115,1,1,0.7,864,1,82,82,1,0.7,3139,1,0,-0.8,0,4
"835",23,1,1,115,1,0.115,1,0,-0.7,904,0,2,28,0,-0.6,3144,0,1,0.9,1,4
"836",23,1,1,116,1,0.115,1,1,0.6,664,1,68,82,1,0.7,2825,1,1,0.7,1,4
"837",23,1,1,117,1,0.115,1,1,0.6,792,1,68,28,0,-0.6,2952,0,0,-0.7,0,4
"838",23,1,1,118,1,0.115,1,1,0.6,639,1,68,82,1,0.7,2679,1,1,0.7,1,4
"839",23,1,1,119,1,0.115,0,0,-0.7,974,1,82,82,0,-0.7,2654,1,0,-1,1,4
"840",23,1,1,120,1,0.115,0,0,-0.6,1751,1,68,28,1,0.6,3936,0,1,0.9,0,4
"841",23,1,2,121,2,0.115,1,0,-0.6,1420,0,28,28,0,-0.6,2985,0,1,0.6,1,4
"842",23,1,2,122,2,0.115,0,0,-0.7,866,1,82,92,0,-0.8,3226,1,0,-0.9,1,4
"843",23,1,2,123,2,0.115,1,0,-0.7,1068,0,2,2,0,-0.7,4418,0,1,1,1,4
"844",23,1,2,124,2,0.115,1,1,0.7,680,1,82,82,1,0.7,2935,1,1,0.6,1,4
"845",23,1,2,125,2,0.115,0,0,-0.6,728,1,68,82,0,-0.7,3063,1,0,-0.9,1,4
"846",23,1,2,126,2,0.115,0,0,-0.6,711,1,68,82,0,-0.7,3246,1,0,-0.9,1,4
"847",23,1,2,127,2,0.115,0,0,-0.7,1163,1,82,82,0,-0.7,2788,1,1,0.7,0,4
"848",23,1,2,128,2,0.115,0,0,-0.7,910,1,82,82,0,-0.7,2220,1,0,-0.7,1,4
"849",23,1,2,129,2,0.115,0,0,-0.7,780,1,82,92,0,-0.8,3041,1,0,-1,1,4
"850",23,1,2,130,2,0.115,1,0,-0.8,1169,0,-28,-28,0,-0.8,2769,0,0,-0.6,0,4
"851",23,1,2,131,2,0.115,1,0,-0.6,601,0,28,68,1,0.6,3016,1,1,1,1,4
"852",23,1,2,132,2,0.115,0,0,-0.7,771,1,82,82,0,-0.7,5251,1,1,0.8,0,4
"853",23,1,2,133,2,0.115,1,1,0.6,974,1,68,92,1,0.8,3889,1,1,1,1,4
"854",23,1,2,134,2,0.115,0,0,-0.7,1209,1,82,82,0,-0.7,3299,1,0,-1,1,4
"855",23,1,2,135,2,0.115,1,1,0.7,1079,1,82,92,1,0.8,2759,1,1,0.7,1,4
"856",23,1,2,136,2,0.115,1,0,-0.7,901,0,2,2,0,-0.7,2461,0,1,0.7,1,4
"857",23,1,2,137,2,0.115,1,1,0.7,898,1,82,92,1,0.8,2823,1,1,0.8,1,4
"858",23,1,2,138,2,0.115,0,1,0.7,773,0,2,2,1,0.7,2393,0,0,-0.9,1,4
"859",23,1,2,139,2,0.115,1,0,-0.7,1730,0,2,2,0,-0.7,3165,0,1,0.6,1,4
"860",23,1,2,140,2,0.115,0,1,0.7,922,0,2,68,0,-0.6,3257,1,0,-0.9,1,4
"861",23,1,2,141,2,0.115,1,0,-0.7,840,0,2,2,0,-0.7,2710,0,1,0.9,1,4
"862",23,1,2,142,2,0.115,0,1,0.7,1057,0,2,2,1,0.7,2977,0,1,0.9,0,4
"863",23,1,2,143,2,0.115,1,0,-0.7,1096,0,2,68,1,0.6,3836,1,1,0.8,1,4
"864",23,1,2,144,2,0.115,1,1,0.6,2513,1,68,82,1,0.7,4688,1,1,0.7,1,4
"865",23,1,2,145,2,0.115,1,1,0.6,663,1,68,82,1,0.7,2553,1,1,0.9,1,4
"866",23,1,2,146,2,0.115,1,1,0.7,860,1,82,92,1,0.8,3031,1,1,0.7,1,4
"867",23,1,2,147,2,0.115,1,1,0.8,1105,1,92,100,1,1,3145,1,1,1,1,4
"868",23,1,2,148,2,0.115,1,1,0.7,892,1,82,92,1,0.8,2877,1,1,0.9,1,4
"869",23,1,2,149,2,0.115,0,0,-0.6,2642,1,68,82,0,-0.7,4882,1,0,-1,1,4
"870",23,1,2,150,2,0.115,1,0,-0.6,959,0,28,28,0,-0.6,2649,0,1,0.6,1,4
"871",23,1,2,151,2,0.115,1,1,0.7,903,1,82,92,1,0.8,2943,1,1,1,1,4
"872",23,1,2,152,2,0.115,1,1,0.8,1454,1,92,98,1,0.9,4470,1,1,0.9,1,4
"873",23,1,2,153,2,0.115,0,1,0.8,1069,0,-28,2,1,0.7,3869,0,0,-0.7,1,4
"874",23,1,2,154,2,0.115,0,0,-0.6,690,1,68,82,0,-0.7,2660,1,0,-1,1,4
"875",23,1,2,155,2,0.115,1,1,0.6,875,1,68,92,1,0.8,2885,1,1,0.8,1,4
"876",23,1,2,156,2,0.115,0,1,0.8,1417,0,-28,2,1,0.7,3502,0,0,-0.6,1,4
"877",23,1,2,157,2,0.115,1,0,-0.7,1034,0,2,2,0,-0.7,2609,0,1,0.7,1,4
"878",23,1,2,158,2,0.115,1,0,-0.6,716,0,28,28,0,-0.6,2226,0,1,0.6,1,4
"879",23,1,2,159,2,0.115,1,1,0.7,675,1,82,92,1,0.8,2980,1,1,0.7,1,4
"880",23,1,2,160,2,0.115,1,0,-0.6,917,0,28,28,0,-0.6,2788,0,0,-0.6,0,4
"881",23,1,2,161,2,0.115,0,0,-0.7,650,1,82,92,0,-0.8,2540,1,0,-0.8,1,4
"882",23,1,2,162,2,0.115,0,1,0.7,739,0,2,2,1,0.7,2359,0,0,-0.7,1,4
"883",23,1,2,163,2,0.115,1,1,0.8,1016,1,92,100,1,1,3471,1,1,1,1,4
"884",23,1,2,164,2,0.115,1,1,0.8,1221,1,92,98,1,0.9,3206,1,1,0.8,1,4
"885",23,1,2,165,2,0.115,1,1,0.7,811,1,82,82,1,0.7,2381,1,1,0.7,1,4
"886",23,1,2,166,2,0.115,1,1,0.7,845,1,82,98,1,0.9,3510,1,1,1,1,4
"887",23,1,2,167,2,0.115,1,1,0.8,1065,1,92,100,1,1,3520,1,1,0.9,1,4
"888",23,1,2,168,2,0.115,0,1,0.8,1364,0,-28,-28,1,0.8,2959,0,0,-0.7,1,4
"889",23,1,2,169,2,0.115,1,1,0.7,574,1,82,98,1,0.9,3294,1,1,0.9,1,4
"890",23,1,2,170,2,0.115,1,1,0.7,865,1,82,92,1,0.8,2801,1,1,0.7,1,4
"891",23,1,2,171,2,0.115,1,1,0.6,785,1,68,92,1,0.8,2835,1,1,0.9,1,4
"892",23,1,2,172,2,0.115,0,0,-0.6,1018,1,68,68,0,-0.6,2503,1,0,-0.7,1,4
"893",23,1,2,173,2,0.115,0,0,-0.7,563,1,82,92,0,-0.8,2773,1,0,-0.6,1,4
"894",23,1,2,174,2,0.115,1,0,-0.6,636,0,28,2,0,-0.7,2566,0,0,-0.6,0,4
"895",23,1,2,175,2,0.115,1,0,-0.6,623,0,28,68,1,0.6,2863,1,1,1,1,4
"896",23,1,2,176,2,0.115,1,1,0.6,567,1,68,82,1,0.7,2562,1,1,0.9,1,4
"897",23,1,2,177,2,0.115,1,1,0.7,779,1,82,82,1,0.7,2384,1,0,-0.7,0,4
"898",23,1,2,178,2,0.115,1,1,0.7,994,1,82,98,1,0.9,3715,1,1,0.9,1,4
"899",23,1,2,179,2,0.115,1,1,0.7,836,1,82,100,1,1,3316,1,1,1,1,4
"900",23,1,2,180,2,0.115,0,0,-0.6,629,1,68,82,0,-0.7,2784,1,0,-0.6,1,4
"901",23,1,2,181,2,0.115,1,1,0.8,1336,1,92,100,1,1,3281,1,1,1,1,4
"902",23,1,2,182,2,0.115,0,1,0.7,1003,0,2,2,1,0.7,2683,0,1,0.6,0,4
"903",23,1,2,183,2,0.115,0,0,-0.6,639,1,68,82,0,-0.7,2679,1,0,-1,1,4
"904",23,1,2,184,2,0.115,0,0,-0.7,864,1,82,82,0,-0.7,4249,1,0,-1,1,4
"905",23,1,2,185,2,0.115,0,0,-0.7,868,1,82,82,0,-0.7,2468,1,1,0.7,0,4
"906",23,1,2,186,2,0.115,0,0,-0.7,800,1,82,82,0,-0.7,3730,1,0,-0.7,1,4
"907",23,1,2,187,2,0.115,1,0,-0.7,821,0,2,2,0,-0.7,2407,0,1,0.8,1,4
"908",23,1,2,188,2,0.115,0,0,-0.6,730,1,68,82,0,-0.7,2770,1,0,-0.8,1,4
"909",23,1,2,189,2,0.115,1,1,0.6,1759,1,68,68,1,0.6,3289,1,0,-0.6,0,4
"910",23,1,2,190,2,0.115,0,0,-0.7,792,1,82,82,0,-0.7,2307,1,0,-0.7,1,4
"911",23,1,2,191,2,0.115,1,1,0.8,998,1,92,92,1,0.8,2828,1,0,-0.6,0,4
"912",23,1,2,192,2,0.115,1,1,0.8,956,1,92,92,1,0.8,3766,1,1,0.6,1,4
"913",23,1,2,193,2,0.115,0,0,-0.7,808,1,82,92,0,-0.8,2863,1,0,-0.8,1,4
"914",23,1,2,194,2,0.115,0,0,-0.8,970,1,92,92,0,-0.8,2320,1,0,-0.6,1,4
"915",23,1,2,195,2,0.115,0,0,-0.8,1030,1,92,92,0,-0.8,3851,1,0,-0.7,1,4
"916",23,1,2,196,2,0.115,0,1,0.6,1171,0,28,68,0,-0.6,3666,1,0,-1,1,4
"917",23,1,2,197,2,0.115,1,1,0.7,704,1,82,92,1,0.8,2769,1,1,1,1,4
"918",23,1,2,198,2,0.115,0,1,0.8,1226,0,-28,28,1,0.6,3541,0,0,-0.8,1,4
"919",23,1,2,199,2,0.115,0,0,-0.7,909,1,82,28,1,0.6,3489,0,1,0.8,0,4
"920",23,1,2,200,2,0.115,1,0,-0.7,674,0,2,-28,0,-0.8,2779,0,0,-0.6,0,4
"921",23,1,2,201,2,0.115,0,0,-0.6,851,1,68,82,0,-0.7,3116,1,0,-0.9,1,4
"922",23,1,2,202,2,0.115,0,1,0.6,2845,0,28,28,1,0.6,4396,0,0,-0.9,1,4
"923",23,1,2,203,2,0.115,0,0,-0.6,1837,1,68,68,0,-0.6,3457,1,0,-0.8,1,4
"924",23,1,2,204,2,0.115,0,0,-0.6,1097,1,68,82,0,-0.7,3207,1,0,-1,1,4
"925",23,1,2,205,2,0.115,1,1,0.6,2666,1,68,68,1,0.6,4276,1,1,0.6,1,4
"926",23,1,2,206,2,0.115,0,1,0.7,2065,0,2,2,1,0.7,3605,0,0,-1,1,4
"927",23,1,2,207,2,0.115,0,0,-0.7,870,1,82,92,0,-0.8,2880,1,0,-1,1,4
"928",23,1,2,208,2,0.115,1,1,0.7,1085,1,82,92,1,0.8,3030,1,1,0.8,1,4
"929",23,1,2,209,2,0.115,1,1,0.7,990,1,82,92,1,0.8,2965,1,1,0.7,1,4
"930",23,1,2,210,2,0.115,1,0,-0.8,930,0,-28,-28,0,-0.8,2545,0,1,0.8,1,4
"931",23,1,2,211,2,0.115,0,0,-0.8,1342,1,92,92,0,-0.8,4422,1,0,-0.8,1,4
"932",23,1,2,212,2,0.115,0,0,-0.8,1084,1,92,92,0,-0.8,2684,1,0,-0.7,1,4
"933",23,1,2,213,2,0.115,0,0,-0.7,804,1,82,82,0,-0.7,3560,1,0,-0.9,1,4
"934",23,1,2,214,2,0.115,1,1,0.8,1264,1,92,92,1,0.8,2999,1,1,0.6,1,4
"935",23,1,2,215,2,0.115,0,0,-0.7,690,1,82,92,0,-0.8,2780,1,0,-0.6,1,4
"936",23,1,2,216,2,0.115,0,0,-0.7,819,1,82,92,0,-0.8,2899,1,0,-0.9,1,4
"937",23,1,2,217,2,0.115,1,0,-0.8,994,0,-28,-28,0,-0.8,2609,0,1,0.8,1,4
"938",23,1,2,218,2,0.115,1,0,-0.6,1211,0,28,68,1,0.6,3342,1,1,0.6,1,4
"939",23,1,2,219,2,0.115,0,0,-0.6,1603,1,68,82,0,-0.7,3723,1,0,-0.8,1,4
"940",23,1,2,220,2,0.115,1,1,0.7,817,1,82,92,1,0.8,2632,1,1,0.9,1,4
"941",23,1,2,221,2,0.115,1,1,0.6,875,1,68,68,1,0.6,2410,1,1,0.6,1,4
"942",23,1,2,222,2,0.115,0,0,-0.6,750,1,68,92,0,-0.8,3060,1,0,-0.7,1,4
"943",23,1,2,223,2,0.115,0,0,-0.6,689,1,68,92,0,-0.8,2769,1,0,-0.8,1,4
"944",23,1,2,224,2,0.115,1,0,-0.6,851,0,28,28,0,-0.6,2321,0,1,0.8,1,4
"945",23,1,2,225,2,0.115,0,0,-0.6,2251,1,68,92,0,-0.8,5021,1,0,-0.8,1,4
"946",23,1,2,226,2,0.115,0,0,-0.6,757,1,68,92,0,-0.8,4437,1,0,-1,1,4
"947",23,1,2,227,2,0.115,1,0,-0.8,1031,0,-28,-28,0,-0.8,2606,0,1,0.8,1,4
"948",23,1,2,228,2,0.115,0,0,-0.6,468,1,68,28,1,0.6,4084,0,1,0.7,0,4
"949",23,1,2,229,2,0.115,0,0,-0.6,1149,1,68,68,0,-0.6,2729,1,0,-0.6,1,4
"950",23,1,2,230,2,0.115,0,0,-0.6,1401,1,68,92,0,-0.8,4056,1,0,-0.8,1,4
"951",23,1,2,231,2,0.115,0,0,-0.8,971,1,92,98,0,-0.9,2811,1,0,-0.9,1,4
"952",23,1,2,232,2,0.115,0,0,-0.6,628,1,68,68,0,-0.6,2123,1,0,-0.7,1,4
"953",23,1,2,233,2,0.115,0,0,-0.7,722,1,82,92,0,-0.8,2723,1,0,-0.8,1,4
"954",23,1,2,234,2,0.115,0,0,-0.7,719,1,82,92,0,-0.8,3024,1,0,-0.9,1,4
"955",23,1,2,235,2,0.115,0,0,-0.7,657,1,82,92,0,-0.8,2522,1,0,-0.8,1,4
"956",23,1,2,236,2,0.115,1,0,-0.8,890,0,-28,-28,0,-0.8,3690,0,1,1,1,4
"957",23,1,2,237,2,0.115,1,1,0.6,732,1,68,28,0,-0.6,3217,0,0,-0.9,0,4
"958",23,1,2,238,2,0.115,1,1,0.7,1226,1,82,100,1,1,3922,1,1,0.9,1,4
"959",23,1,2,239,2,0.115,0,1,0.8,1758,0,-28,68,0,-0.6,6278,1,0,-1,1,4
"960",23,1,2,240,2,0.115,0,1,0.7,1208,0,2,2,1,0.7,2824,0,1,0.6,0,4
"961",25,0,1,1,2,0.035411,0,0,-0.6,1792,1,68,82,0,-0.7,6072,1,0,-0.9,1,5
"962",25,0,1,2,2,0.035411,1,1,0.9,5957,1,98,92,1,0.8,9383,1,0,-0.6,0,5
"963",25,0,1,3,2,0.035411,1,0,-0.6,1606,0,28,28,0,-0.6,4971,0,1,0.8,1,5
"964",25,0,1,4,2,0.035411,0,1,0.9,1643,0,-62,-28,1,0.8,4068,0,0,-0.7,1,5
"965",25,0,1,5,2,0.035411,0,1,0.6,993,0,28,82,0,-0.7,4688,1,0,-1,1,5
"966",25,0,1,6,2,0.035411,0,1,0.6,5706,0,28,28,1,0.6,10116,0,0,-0.6,1,5
"967",25,0,1,7,2,0.035411,0,0,-0.6,1049,1,68,82,0,-0.7,4539,1,0,-0.6,1,5
"968",25,0,1,8,2,0.035411,0,0,-0.6,670,1,68,92,0,-0.8,5195,1,0,-0.8,1,5
"969",25,0,1,9,2,0.035411,0,0,-0.8,1625,1,92,98,0,-0.9,3890,1,0,-0.7,1,5
"970",25,0,1,10,2,0.035411,0,1,0.9,4082,0,-62,2,1,0.7,11552,0,0,-0.8,1,5
"971",25,0,1,11,2,0.035411,1,1,0.6,563,1,68,98,1,0.9,2953,1,1,0.8,1,5
"972",25,0,1,12,2,0.035411,0,1,0.7,1244,0,2,28,1,0.6,2939,0,0,-0.6,1,5
"973",25,0,1,13,2,0.035411,0,0,-0.9,2159,1,98,100,0,-1,3969,1,0,-0.9,1,5
"974",25,0,1,14,2,0.035411,0,0,-0.6,3066,1,68,28,1,0.6,5901,0,1,0.7,0,5
"975",25,0,1,15,2,0.035411,1,1,0.8,1166,1,92,100,1,1,3036,1,1,0.8,1,5
"976",25,0,1,16,2,0.035411,1,1,1,2279,1,100,100,1,1,4529,1,1,0.8,1,5
"977",25,0,1,17,2,0.035411,1,1,1,1600,1,100,100,1,1,3425,1,1,1,1,5
"978",25,0,1,18,2,0.035411,1,1,1,1528,1,100,100,1,1,3453,1,1,0.8,1,5
"979",25,0,1,19,2,0.035411,1,1,0.7,1003,1,82,98,1,0.9,3138,1,1,0.8,1,5
"980",25,0,1,20,2,0.035411,1,1,1,1941,1,100,100,1,1,4767,1,1,0.7,1,5
"981",25,0,1,21,2,0.035411,1,1,0.9,2003,1,98,100,1,1,4278,1,1,0.9,1,5
"982",25,0,1,22,2,0.035411,0,0,-0.6,733,1,68,98,0,-0.9,2843,1,0,-1,1,5
"983",25,0,1,23,2,0.035411,1,1,1,1474,1,100,100,1,1,3299,1,1,0.9,1,5
"984",25,0,1,24,2,0.035411,1,1,1,1519,1,100,100,1,1,3184,1,1,1,1,5
"985",25,0,1,25,2,0.035411,0,1,0.9,1590,0,-62,2,1,0.7,6365,0,0,-0.9,1,5
"986",25,0,1,26,2,0.035411,1,1,0.7,1446,1,82,98,1,0.9,4481,1,1,1,1,5
"987",25,0,1,27,2,0.035411,0,0,-0.6,2619,1,68,28,1,0.6,5499,0,1,0.6,0,5
"988",25,0,1,28,2,0.035411,1,1,0.8,3310,1,92,92,1,0.8,6115,1,1,0.6,1,5
"989",25,0,1,29,2,0.035411,0,1,0.7,1956,0,2,28,1,0.6,6626,0,0,-1,1,5
"990",25,0,1,30,2,0.035411,1,1,0.7,1072,1,82,100,1,1,4177,1,1,0.9,1,5
"991",25,0,1,31,2,0.035411,1,1,1,1375,1,100,100,1,1,3365,1,1,0.7,1,5
"992",25,0,1,32,2,0.035411,0,1,0.7,790,0,2,28,1,0.6,3865,0,0,-0.6,1,5
"993",25,0,1,33,2,0.035411,1,1,0.9,1439,1,98,100,1,1,3359,1,1,1,1,5
"994",25,0,1,34,2,0.035411,1,1,1,1603,1,100,100,1,1,3368,1,1,0.9,1,5
"995",25,0,1,35,2,0.035411,1,1,1,1517,1,100,100,1,1,3157,1,1,1,1,5
"996",25,0,1,36,2,0.035411,0,1,0.7,976,0,2,28,1,0.6,3111,0,0,-0.7,1,5
"997",25,0,1,37,2,0.035411,0,1,0.9,1776,0,-62,2,1,0.7,5132,0,0,-0.6,1,5
"998",25,0,1,38,2,0.035411,1,1,0.6,970,1,68,82,1,0.7,2880,1,1,0.6,1,5
"999",25,0,1,39,2,0.035411,0,0,-0.7,937,1,82,98,0,-0.9,3107,1,0,-0.8,1,5
"1000",25,0,1,40,2,0.035411,0,1,0.6,2802,0,28,82,0,-0.7,5002,1,0,-0.9,1,5
"1001",25,0,1,41,2,0.035411,0,0,-0.6,720,1,68,98,0,-0.9,3040,1,0,-1,1,5
"1002",25,0,1,42,2,0.035411,0,0,-0.7,894,1,82,98,0,-0.9,2919,1,0,-0.8,1,5
"1003",25,0,1,43,2,0.035411,1,1,0.9,2090,1,98,98,1,0.9,5315,1,1,0.6,1,5
"1004",25,0,1,44,2,0.035411,1,1,0.8,1708,1,92,100,1,1,3883,1,1,1,1,5
"1005",25,0,1,45,2,0.035411,1,0,-0.6,1188,0,28,68,1,0.6,5023,1,1,0.7,1,5
"1006",25,0,1,46,2,0.035411,0,0,-0.7,1358,1,82,92,0,-0.8,3348,1,0,-0.7,1,5
"1007",25,0,1,47,2,0.035411,1,1,0.8,1267,1,92,100,1,1,3587,1,1,0.8,1,5
"1008",25,0,1,48,2,0.035411,1,1,0.7,1700,1,82,82,1,0.7,3560,1,1,0.6,1,5
"1009",25,0,1,49,2,0.035411,0,1,0.6,906,0,28,82,0,-0.7,5521,1,0,-1,1,5
"1010",25,0,1,50,2,0.035411,0,0,-0.6,1186,1,68,92,0,-0.8,3371,1,0,-0.8,1,5
"1011",25,0,1,51,2,0.035411,0,0,-0.8,1569,1,92,100,0,-1,3904,1,0,-1,1,5
"1012",25,0,1,52,2,0.035411,0,0,-1,1810,1,100,100,0,-1,3570,1,0,-0.7,1,5
"1013",25,0,1,53,2,0.035411,0,0,-0.9,1882,1,98,100,0,-1,3917,1,0,-0.7,1,5
"1014",25,0,1,54,2,0.035411,1,1,1,3678,1,100,100,1,1,5663,1,1,1,1,5
"1015",25,0,1,55,2,0.035411,1,1,0.8,1248,1,92,100,1,1,3398,1,1,0.9,1,5
"1016",25,0,1,56,2,0.035411,0,0,-0.9,2500,1,98,100,0,-1,4405,1,0,-0.9,1,5
"1017",25,0,1,57,2,0.035411,0,0,-0.6,1161,1,68,92,0,-0.8,3241,1,0,-0.7,1,5
"1018",25,0,1,58,2,0.035411,0,0,-0.7,1142,1,82,100,0,-1,3237,1,0,-1,1,5
"1019",25,0,1,59,2,0.035411,1,1,1,1843,1,100,100,1,1,3803,1,1,0.8,1,5
"1020",25,0,1,60,2,0.035411,0,0,-0.7,1143,1,82,100,0,-1,3263,1,0,-0.8,1,5
"1021",25,0,1,61,2,0.035411,1,1,1,1500,1,100,100,1,1,3851,1,1,0.8,1,5
"1022",25,0,1,62,2,0.035411,1,1,1,1768,1,100,100,1,1,3518,1,1,0.7,1,5
"1023",25,0,1,63,2,0.035411,0,1,0.7,991,0,2,28,1,0.6,3686,0,0,-0.6,1,5
"1024",25,0,1,64,2,0.035411,1,1,1,1458,1,100,100,1,1,5348,1,0,-0.6,0,5
"1025",25,0,1,65,2,0.035411,0,0,-0.7,858,1,82,98,0,-0.9,2813,1,0,-0.7,1,5
"1026",25,0,1,66,2,0.035411,1,1,1,1151,1,100,100,1,1,2871,1,1,1,1,5
"1027",25,0,1,67,2,0.035411,1,1,1,1497,1,100,100,1,1,3207,1,1,1,1,5
"1028",25,0,1,68,2,0.035411,0,1,0.7,813,0,2,28,1,0.6,3174,0,0,-0.7,1,5
"1029",25,0,1,69,2,0.035411,1,1,0.9,1975,1,98,100,1,1,3720,1,1,0.8,1,5
"1030",25,0,1,70,2,0.035411,1,1,0.9,1164,1,98,100,1,1,2964,1,1,0.9,1,5
"1031",25,0,1,71,2,0.035411,1,1,1,1966,1,100,100,1,1,3576,1,1,0.9,1,5
"1032",25,0,1,72,2,0.035411,1,1,0.7,831,1,82,100,1,1,3161,1,1,0.8,1,5
"1033",25,0,1,73,2,0.035411,0,0,-0.7,866,1,82,100,0,-1,3322,1,0,-0.9,1,5
"1034",25,0,1,74,2,0.035411,1,1,0.8,986,1,92,100,1,1,3041,1,1,0.7,1,5
"1035",25,0,1,75,2,0.035411,1,1,1,1513,1,100,100,1,1,3358,1,1,0.6,1,5
"1036",25,0,1,76,2,0.035411,0,0,-0.8,2044,1,92,100,0,-1,4264,1,0,-0.9,1,5
"1037",25,0,1,77,2,0.035411,0,0,-0.7,905,1,82,100,0,-1,3170,1,0,-0.8,1,5
"1038",25,0,1,78,2,0.035411,1,0,-0.6,837,0,28,68,1,0.6,5107,1,1,0.9,1,5
"1039",25,0,1,79,2,0.035411,1,1,1,2051,1,100,100,1,1,4521,1,1,1,1,5
"1040",25,0,1,80,2,0.035411,1,1,0.9,1729,1,98,100,1,1,3949,1,1,0.7,1,5
"1041",25,0,1,81,2,0.035411,1,1,0.7,815,1,82,100,1,1,3095,1,1,0.9,1,5
"1042",25,0,1,82,2,0.035411,0,0,-0.6,2553,1,68,68,0,-0.6,5089,1,0,-0.6,1,5
"1043",25,0,1,83,2,0.035411,0,1,0.6,1165,0,28,68,0,-0.6,4050,1,0,-0.6,1,5
"1044",25,0,1,84,2,0.035411,0,0,-0.7,923,1,82,100,0,-1,3688,1,0,-1,1,5
"1045",25,0,1,85,2,0.035411,1,1,1,1348,1,100,100,1,1,2993,1,1,0.8,1,5
"1046",25,0,1,86,2,0.035411,0,0,-0.6,803,1,68,98,0,-0.9,3298,1,0,-0.8,1,5
"1047",25,0,1,87,2,0.035411,1,1,1,1755,1,100,100,1,1,3790,1,1,0.6,1,5
"1048",25,0,1,88,2,0.035411,0,1,0.7,732,0,2,68,0,-0.6,4012,1,0,-0.9,1,5
"1049",25,0,1,89,2,0.035411,0,1,0.6,862,0,28,68,0,-0.6,3158,1,0,-0.6,1,5
"1050",25,0,1,90,2,0.035411,0,0,-0.8,1240,1,92,100,0,-1,3545,1,0,-0.9,1,5
"1051",25,0,1,91,2,0.035411,1,1,0.7,921,1,82,100,1,1,3237,1,1,0.9,1,5
"1052",25,0,1,92,2,0.035411,0,0,-0.7,1156,1,82,100,0,-1,3351,1,0,-0.8,1,5
"1053",25,0,1,93,2,0.035411,1,1,1,1869,1,100,100,1,1,3634,1,1,0.7,1,5
"1054",25,0,1,94,2,0.035411,1,1,1,1792,1,100,100,1,1,3442,1,1,0.7,1,5
"1055",25,0,1,95,2,0.035411,0,0,-0.7,938,1,82,98,0,-0.9,3383,1,0,-0.7,1,5
"1056",25,0,1,96,2,0.035411,0,0,-0.7,1019,1,82,100,0,-1,3169,1,0,-1,1,5
"1057",25,0,1,97,2,0.035411,0,0,-0.7,1100,1,82,82,0,-0.7,3390,1,0,-0.6,1,5
"1058",25,0,1,98,2,0.035411,0,0,-0.9,2116,1,98,100,0,-1,4987,1,0,-0.7,1,5
"1059",25,0,1,99,2,0.035411,1,1,0.8,1458,1,92,98,1,0.9,3578,1,1,0.7,1,5
"1060",25,0,1,100,2,0.035411,1,1,0.6,1390,1,68,92,1,0.8,3350,1,1,0.7,1,5
"1061",25,0,1,101,2,0.035411,0,0,-0.7,1313,1,82,100,0,-1,3683,1,0,-1,1,5
"1062",25,0,1,102,2,0.035411,1,1,0.6,759,1,68,-28,0,-0.8,3599,0,0,-0.7,0,5
"1063",25,0,1,103,2,0.035411,1,1,0.6,3267,1,68,98,1,0.9,5322,1,1,1,1,5
"1064",25,0,1,104,2,0.035411,0,0,-0.6,862,1,68,82,0,-0.7,3692,1,0,-0.9,1,5
"1065",25,0,1,105,2,0.035411,1,1,0.9,1195,1,98,100,1,1,3035,1,1,0.9,1,5
"1066",25,0,1,106,2,0.035411,1,1,0.9,2686,1,98,100,1,1,4576,1,1,0.9,1,5
"1067",25,0,1,107,2,0.035411,0,0,-0.7,988,1,82,98,0,-0.9,2889,1,0,-0.8,1,5
"1068",25,0,1,108,2,0.035411,1,1,0.6,788,1,68,82,1,0.7,2843,1,1,0.6,1,5
"1069",25,0,1,109,2,0.035411,0,0,-0.7,887,1,82,100,0,-1,3362,1,0,-0.9,1,5
"1070",25,0,1,110,2,0.035411,1,1,0.6,1010,1,68,92,1,0.8,3145,1,1,0.7,1,5
"1071",25,0,1,111,2,0.035411,0,0,-1,3513,1,100,100,0,-1,5168,1,0,-1,1,5
"1072",25,0,1,112,2,0.035411,0,0,-1,1750,1,100,100,0,-1,3350,1,0,-1,1,5
"1073",25,0,1,113,2,0.035411,0,0,-0.6,3288,1,68,28,1,0.6,5753,0,1,0.6,0,5
"1074",25,0,1,114,2,0.035411,0,0,-1,2434,1,100,100,0,-1,4049,1,0,-0.8,1,5
"1075",25,0,1,115,2,0.035411,1,0,-0.7,1787,0,2,28,0,-0.6,4092,0,1,0.6,1,5
"1076",25,0,1,116,2,0.035411,0,1,0.6,633,0,28,68,0,-0.6,5074,1,0,-0.8,1,5
"1077",25,0,1,117,2,0.035411,1,0,-0.6,3345,0,28,68,1,0.6,5225,1,1,0.6,1,5
"1078",25,0,1,118,2,0.035411,1,1,1,1367,1,100,100,1,1,2968,1,1,0.6,1,5
"1079",25,0,1,119,2,0.035411,0,0,-0.6,852,1,68,92,0,-0.8,2862,1,0,-0.9,1,5
"1080",25,0,1,120,2,0.035411,1,0,-0.7,2261,0,2,68,1,0.6,5861,1,1,1,1,5
"1081",25,0,2,121,1,0.035411,1,1,1,1378,1,100,100,1,1,3018,1,1,0.8,1,5
"1082",25,0,2,122,1,0.035411,0,0,-0.6,2018,1,68,68,0,-0.6,3748,1,1,0.6,0,5
"1083",25,0,2,123,1,0.035411,1,1,0.9,1226,1,98,92,1,0.8,4506,1,0,-0.8,0,5
"1084",25,0,2,124,1,0.035411,1,1,1,1326,1,100,100,1,1,2946,1,1,0.6,1,5
"1085",25,0,2,125,1,0.035411,1,1,1,1283,1,100,100,1,1,2924,1,1,0.7,1,5
"1086",25,0,2,126,1,0.035411,1,1,0.8,1249,1,92,92,1,0.8,3079,1,0,-0.8,0,5
"1087",25,0,2,127,1,0.035411,0,0,-0.6,684,1,68,92,0,-0.8,2859,1,0,-1,1,5
"1088",25,0,2,128,1,0.035411,0,1,0.8,1337,0,-28,-62,1,0.9,3283,0,1,0.8,0,5
"1089",25,0,2,129,1,0.035411,1,1,0.8,1266,1,92,92,1,0.8,3281,1,1,0.8,1,5
"1090",25,0,2,130,1,0.035411,0,1,0.7,565,0,2,2,1,0.7,2261,0,0,-0.9,1,5
"1091",25,0,2,131,1,0.035411,1,1,0.9,1330,1,98,98,1,0.9,2875,1,1,0.9,1,5
"1092",25,0,2,132,1,0.035411,1,1,0.9,1735,1,98,98,1,0.9,3540,1,1,0.8,1,5
"1093",25,0,2,133,1,0.035411,0,1,0.7,854,0,2,2,1,0.7,2829,0,0,-0.9,1,5
"1094",25,0,2,134,1,0.035411,0,1,0.7,1276,0,2,-28,1,0.8,3301,0,1,0.8,0,5
"1095",25,0,2,135,1,0.035411,1,1,0.7,1217,1,82,92,1,0.8,3283,1,1,0.8,1,5
"1096",25,0,2,136,1,0.035411,0,0,-0.6,964,1,68,28,1,0.6,3299,0,1,0.9,0,5
"1097",25,0,2,137,1,0.035411,1,1,0.8,1742,1,92,92,1,0.8,3477,1,1,1,1,5
"1098",25,0,2,138,1,0.035411,1,1,0.7,2134,1,82,68,1,0.6,4239,1,0,-0.6,0,5
"1099",25,0,2,139,1,0.035411,1,1,0.7,958,1,82,68,1,0.6,2883,1,0,-0.8,0,5
"1100",25,0,2,140,1,0.035411,1,1,0.9,3458,1,98,98,1,0.9,5793,1,1,0.7,1,5
"1101",25,0,2,141,1,0.035411,0,0,-0.6,1477,1,68,82,0,-0.7,3452,1,0,-0.8,1,5
"1102",25,0,2,142,1,0.035411,0,1,0.9,4101,0,-62,2,1,0.7,7386,0,0,-0.9,1,5
"1103",25,0,2,143,1,0.035411,1,1,0.7,1955,1,82,92,1,0.8,4050,1,1,0.9,1,5
"1104",25,0,2,144,1,0.035411,1,1,0.8,4089,1,92,100,1,1,6274,1,1,1,1,5
"1105",25,0,2,145,1,0.035411,0,0,-0.6,1287,1,68,82,0,-0.7,3407,1,0,-0.9,1,5
"1106",25,0,2,146,1,0.035411,0,0,-0.7,892,1,82,92,0,-0.8,2627,1,0,-0.9,1,5
"1107",25,0,2,147,1,0.035411,0,1,0.7,1643,0,2,28,1,0.6,3643,0,0,-0.8,1,5
"1108",25,0,2,148,1,0.035411,0,1,0.7,1716,0,2,-28,1,0.8,3967,0,1,0.7,0,5
"1109",25,0,2,149,1,0.035411,0,0,-0.7,1015,1,82,92,0,-0.8,2945,1,0,-0.9,1,5
"1110",25,0,2,150,1,0.035411,1,1,0.7,865,1,82,68,1,0.6,2790,1,0,-0.8,0,5
"1111",25,0,2,151,1,0.035411,1,1,0.8,1148,1,92,92,1,0.8,2643,1,1,0.7,1,5
"1112",25,0,2,152,1,0.035411,0,1,0.6,1284,0,28,28,1,0.6,3470,0,0,-0.7,1,5
"1113",25,0,2,153,1,0.035411,0,1,0.7,1459,0,2,2,1,0.7,3254,0,1,0.6,0,5
"1114",25,0,2,154,1,0.035411,1,1,0.6,2069,1,68,68,1,0.6,3784,1,0,-0.6,0,5
"1115",25,0,2,155,1,0.035411,0,0,-0.7,924,1,82,92,0,-0.8,2870,1,0,-0.8,1,5
"1116",25,0,2,156,1,0.035411,1,1,0.8,1013,1,92,92,1,0.8,2693,1,1,0.6,1,5
"1117",25,0,2,157,1,0.035411,1,1,0.8,1160,1,92,92,1,0.8,2835,1,1,0.7,1,5
"1118",25,0,2,158,1,0.035411,0,0,-0.8,969,1,92,68,0,-0.6,2879,1,1,0.9,0,5
"1119",25,0,2,159,1,0.035411,1,1,0.8,1167,1,92,82,1,0.7,3287,1,0,-0.6,0,5
"1120",25,0,2,160,1,0.035411,1,1,0.8,1895,1,92,92,1,0.8,3626,1,0,-0.8,0,5
"1121",25,0,2,161,1,0.035411,1,1,0.9,1453,1,98,100,1,1,3268,1,1,0.9,1,5
"1122",25,0,2,162,1,0.035411,1,1,1,1691,1,100,98,1,0.9,3976,1,0,-0.6,0,5
"1123",25,0,2,163,1,0.035411,0,0,-1,3541,1,100,100,0,-1,5236,1,0,-0.7,1,5
"1124",25,0,2,164,1,0.035411,1,1,1,1479,1,100,100,1,1,3394,1,0,-0.6,0,5
"1125",25,0,2,165,1,0.035411,0,0,-0.7,1159,1,82,82,0,-0.7,2824,1,1,0.6,0,5
"1126",25,0,2,166,1,0.035411,0,1,0.8,1051,0,-28,-28,1,0.8,2676,0,1,0.6,0,5
"1127",25,0,2,167,1,0.035411,1,0,-0.8,1440,0,-28,28,0,-0.6,4581,0,1,0.7,1,5
"1128",25,0,2,168,1,0.035411,1,1,0.8,1955,1,92,92,1,0.8,5715,1,0,-1,0,5
"1129",25,0,2,169,1,0.035411,0,0,-0.9,2399,1,98,98,0,-0.9,3975,1,0,-0.6,1,5
"1130",25,0,2,170,1,0.035411,1,1,0.8,1406,1,92,98,1,0.9,5051,1,1,1,1,5
"1131",25,0,2,171,1,0.035411,1,0,-0.6,1859,0,28,68,1,0.6,4725,1,1,1,1,5
"1132",25,0,2,172,1,0.035411,0,0,-0.7,1287,1,82,92,0,-0.8,3102,1,0,-1,1,5
"1133",25,0,2,173,1,0.035411,1,1,1,1515,1,100,100,1,1,3220,1,1,0.7,1,5
"1134",25,0,2,174,1,0.035411,1,1,1,1695,1,100,100,1,1,3365,1,0,-0.6,0,5
"1135",25,0,2,175,1,0.035411,1,1,0.9,1595,1,98,92,1,0.8,3675,1,0,-0.7,0,5
"1136",25,0,2,176,1,0.035411,0,0,-0.8,1416,1,92,100,0,-1,3522,1,0,-1,1,5
"1137",25,0,2,177,1,0.035411,0,0,-0.7,1798,1,82,82,0,-0.7,3808,1,0,-0.6,1,5
"1138",25,0,2,178,1,0.035411,0,0,-0.8,1044,1,92,100,0,-1,3004,1,0,-0.9,1,5
"1139",25,0,2,179,1,0.035411,0,0,-0.6,881,1,68,82,0,-0.7,2777,1,0,-0.7,1,5
"1140",25,0,2,180,1,0.035411,0,0,-0.7,896,1,82,92,0,-0.8,2640,1,0,-0.8,1,5
"1141",25,0,2,181,1,0.035411,1,0,-0.7,763,0,2,28,0,-0.6,2718,0,1,0.6,1,5
"1142",25,0,2,182,1,0.035411,1,0,-0.6,623,0,28,28,0,-0.6,2498,0,1,0.8,1,5
"1143",25,0,2,183,1,0.035411,1,1,0.8,2032,1,92,100,1,1,3973,1,1,0.9,1,5
"1144",25,0,2,184,1,0.035411,0,0,-0.6,1076,1,68,28,1,0.6,3321,0,1,1,0,5
"1145",25,0,2,185,1,0.035411,0,1,0.6,1176,0,28,28,1,0.6,3111,0,0,-1,1,5
"1146",25,0,2,186,1,0.035411,1,0,-0.6,964,0,28,28,0,-0.6,2799,0,0,-0.7,0,5
"1147",25,0,2,187,1,0.035411,1,1,0.7,1065,1,82,98,1,0.9,3200,1,1,1,1,5
"1148",25,0,2,188,1,0.035411,0,1,0.8,1153,0,-28,28,1,0.6,3329,0,0,-0.8,1,5
"1149",25,0,2,189,1,0.035411,0,1,0.7,1090,0,2,28,1,0.6,3010,0,0,-1,1,5
"1150",25,0,2,190,1,0.035411,1,1,0.8,1040,1,92,92,1,0.8,3415,1,1,0.8,1,5
"1151",25,0,2,191,1,0.035411,1,1,0.6,1474,1,68,82,1,0.7,3469,1,1,1,1,5
"1152",25,0,2,192,1,0.035411,0,0,-0.6,2236,1,68,68,0,-0.6,19267,1,1,0.7,0,5
"1153",25,0,2,193,1,0.035411,0,1,0.7,870,0,2,-28,1,0.8,3536,0,1,1,0,5
"1154",25,0,2,194,1,0.035411,0,0,-0.7,966,1,82,68,0,-0.6,3356,1,1,0.6,0,5
"1155",25,0,2,195,1,0.035411,1,1,0.7,936,1,82,82,1,0.7,3536,1,1,1,1,5
"1156",25,0,2,196,1,0.035411,1,1,0.7,1374,1,82,82,1,0.7,2819,1,1,0.7,1,5
"1157",25,0,2,197,1,0.035411,1,1,0.7,1405,1,82,68,1,0.6,3355,1,0,-0.7,0,5
"1158",25,0,2,198,1,0.035411,1,1,0.8,1056,1,92,92,1,0.8,2737,1,1,0.7,1,5
"1159",25,0,2,199,1,0.035411,0,1,0.9,3106,0,-62,-100,1,1,5281,0,1,0.8,0,5
"1160",25,0,2,200,1,0.035411,1,1,1,1933,1,100,82,1,0.7,4264,1,0,-0.7,0,5
"1161",25,0,2,201,1,0.035411,0,1,0.8,938,0,-28,-28,1,0.8,3058,0,1,0.6,0,5
"1162",25,0,2,202,1,0.035411,1,1,0.7,2198,1,82,82,1,0.7,4263,1,0,-0.6,0,5
"1163",25,0,2,203,1,0.035411,0,0,-0.7,1215,1,82,68,0,-0.6,2945,1,1,0.6,0,5
"1164",25,0,2,204,1,0.035411,0,0,-0.7,892,1,82,92,0,-0.8,2892,1,0,-1,1,5
"1165",25,0,2,205,1,0.035411,1,1,0.7,766,1,82,92,1,0.8,3327,1,1,0.8,1,5
"1166",25,0,2,206,1,0.035411,1,1,0.7,1104,1,82,68,1,0.6,3089,1,0,-1,0,5
"1167",25,0,2,207,1,0.035411,0,0,-0.6,754,1,68,68,0,-0.6,2329,1,0,-0.9,1,5
"1168",25,0,2,208,1,0.035411,0,1,0.6,805,0,28,28,1,0.6,2590,0,1,0.6,0,5
"1169",25,0,2,209,1,0.035411,0,0,-0.6,784,1,68,68,0,-0.6,2379,1,0,-0.8,1,5
"1170",25,0,2,210,1,0.035411,1,1,0.8,998,1,92,98,1,0.9,2653,1,1,1,1,5
"1171",25,0,2,211,1,0.035411,0,0,-0.7,883,1,82,92,0,-0.8,2678,1,0,-0.9,1,5
"1172",25,0,2,212,1,0.035411,1,1,0.9,1562,1,98,82,1,0.7,3952,1,0,-1,0,5
"1173",25,0,2,213,1,0.035411,0,1,0.8,2331,0,-28,-28,1,0.8,5346,0,0,-1,1,5
"1174",25,0,2,214,1,0.035411,0,1,0.7,878,0,2,-28,1,0.8,2773,0,1,0.8,0,5
"1175",25,0,2,215,1,0.035411,0,0,-0.6,698,1,68,68,0,-0.6,2063,1,0,-0.7,1,5
"1176",25,0,2,216,1,0.035411,0,1,0.7,883,0,2,28,1,0.6,2858,0,0,-0.6,1,5
"1177",25,0,2,217,1,0.035411,1,1,0.7,1268,1,82,82,1,0.7,2763,1,1,0.9,1,5
"1178",25,0,2,218,1,0.035411,1,1,0.7,945,1,82,82,1,0.7,2605,1,0,-1,0,5
"1179",25,0,2,219,1,0.035411,0,0,-0.7,723,1,82,82,0,-0.7,2308,1,0,-0.9,1,5
"1180",25,0,2,220,1,0.035411,0,0,-0.6,1129,1,68,82,0,-0.7,2895,1,0,-0.9,1,5
"1181",25,0,2,221,1,0.035411,0,0,-0.6,646,1,68,82,0,-0.7,3031,1,0,-1,1,5
"1182",25,0,2,222,1,0.035411,1,1,0.7,1221,1,82,82,1,0.7,3396,1,1,0.7,1,5
"1183",25,0,2,223,1,0.035411,0,0,-0.6,1042,1,68,68,0,-0.6,2652,1,1,0.9,0,5
"1184",25,0,2,224,1,0.035411,0,0,-0.7,800,1,82,92,0,-0.8,2800,1,0,-0.7,1,5
"1185",25,0,2,225,1,0.035411,1,0,-0.7,871,0,2,28,0,-0.6,3632,0,1,1,1,5
"1186",25,0,2,226,1,0.035411,1,1,0.8,1038,1,92,82,1,0.7,3833,1,0,-0.6,0,5
"1187",25,0,2,227,1,0.035411,1,0,-0.6,576,0,28,28,0,-0.6,2816,0,1,0.8,1,5
"1188",25,0,2,228,1,0.035411,0,1,0.8,896,0,-28,28,1,0.6,3256,0,0,-0.9,1,5
"1189",25,0,2,229,1,0.035411,0,1,0.8,1301,0,-28,-28,1,0.8,3031,0,1,0.6,0,5
"1190",25,0,2,230,1,0.035411,0,0,-0.7,818,1,82,82,0,-0.7,2468,1,0,-0.8,1,5
"1191",25,0,2,231,1,0.035411,1,1,0.7,1478,1,82,82,1,0.7,4053,1,1,0.9,1,5
"1192",25,0,2,232,1,0.035411,0,1,0.8,1281,0,-28,-28,1,0.8,2886,0,1,0.7,0,5
"1193",25,0,2,233,1,0.035411,0,0,-0.7,820,1,82,82,0,-0.7,2220,1,0,-0.7,1,5
"1194",25,0,2,234,1,0.035411,1,1,0.7,1275,1,82,82,1,0.7,6825,1,1,0.9,1,5
"1195",25,0,2,235,1,0.035411,0,0,-0.8,926,1,92,68,0,-0.6,3206,1,1,1,0,5
"1196",25,0,2,236,1,0.035411,1,1,1,1174,1,100,100,1,1,2699,1,1,0.9,1,5
"1197",25,0,2,237,1,0.035411,0,0,-0.6,2965,1,68,68,0,-0.6,4551,1,0,-0.7,1,5
"1198",25,0,2,238,1,0.035411,1,1,1,1319,1,100,100,1,1,2879,1,1,0.9,1,5
"1199",25,0,2,239,1,0.035411,0,1,0.8,2207,0,-28,28,1,0.6,4477,0,0,-0.6,1,5
"1200",25,0,2,240,1,0.035411,1,1,0.9,1397,1,98,82,1,0.7,4037,1,0,-0.7,0,5
"1201",21,1,1,1,1,0.027931,0,0,-0.9,3197,1,98,98,0,-0.9,12187,1,1,0.6,0,6
"1202",21,1,1,2,1,0.027931,1,1,0.7,3356,1,82,92,1,0.8,9162,1,1,0.8,1,6
"1203",21,1,1,3,1,0.027931,1,1,0.8,2738,1,92,92,1,0.8,7143,1,1,0.6,1,6
"1204",21,1,1,4,1,0.027931,0,0,-1,2839,1,100,98,0,-0.9,9024,1,1,0.8,0,6
"1205",21,1,1,5,1,0.027931,1,1,0.6,1651,1,68,82,1,0.7,7277,1,1,1,1,6
"1206",21,1,1,6,1,0.027931,1,1,1,2905,1,100,100,1,1,7500,1,1,0.6,1,6
"1207",21,1,1,7,1,0.027931,1,1,1,5595,1,100,100,1,1,7795,1,1,0.8,1,6
"1208",21,1,1,8,1,0.027931,0,0,-0.9,1975,1,98,100,0,-1,7919,1,0,-0.9,1,6
"1209",21,1,1,9,1,0.027931,1,1,0.9,2468,1,98,100,1,1,7743,1,1,0.9,1,6
"1210",21,1,1,10,1,0.027931,0,0,-0.7,1980,1,82,92,0,-0.8,5140,1,0,-1,1,6
"1211",21,1,1,11,1,0.027931,1,1,1,2364,1,100,100,1,1,3734,1,1,1,1,6
"1212",21,1,1,12,1,0.027931,0,0,-1,2457,1,100,100,0,-1,6412,1,0,-0.6,1,6
"1213",21,1,1,13,1,0.027931,0,0,-0.9,3114,1,98,98,0,-0.9,6125,1,0,-0.6,1,6
"1214",21,1,1,14,1,0.027931,0,0,-0.7,1871,1,82,82,0,-0.7,6326,1,1,0.8,0,6
"1215",21,1,1,15,1,0.027931,0,0,-0.6,1685,1,68,82,0,-0.7,4685,1,0,-0.8,1,6
"1216",21,1,1,16,1,0.027931,1,1,1,1792,1,100,100,1,1,5502,1,1,0.7,1,6
"1217",21,1,1,17,1,0.027931,1,1,0.6,2175,1,68,28,0,-0.6,6105,0,0,-0.8,0,6
"1218",21,1,1,18,1,0.027931,0,0,-0.7,1347,1,82,92,0,-0.8,3077,1,0,-1,1,6
"1219",21,1,1,19,1,0.027931,0,1,0.6,1073,0,28,68,0,-0.6,7709,1,0,-0.9,1,6
"1220",21,1,1,20,1,0.027931,1,1,0.6,2788,1,68,82,1,0.7,6383,1,1,0.8,1,6
"1221",21,1,1,21,1,0.027931,0,0,-0.9,1684,1,98,100,0,-1,4029,1,0,-0.9,1,6
"1222",21,1,1,22,1,0.027931,0,0,-0.6,2174,1,68,92,0,-0.8,6864,1,0,-1,1,6
"1223",21,1,1,23,1,0.027931,1,1,0.6,1623,1,68,92,1,0.8,5803,1,1,1,1,6
"1224",21,1,1,24,1,0.027931,0,0,-0.8,1679,1,92,98,0,-0.9,5785,1,0,-0.9,1,6
"1225",21,1,1,25,1,0.027931,0,0,-0.9,5574,1,98,98,0,-0.9,8119,1,0,-0.7,1,6
"1226",21,1,1,26,1,0.027931,0,0,-0.7,1653,1,82,92,0,-0.8,4108,1,0,-0.7,1,6
"1227",21,1,1,27,1,0.027931,1,1,0.7,1838,1,82,92,1,0.8,5108,1,1,0.7,1,6
"1228",21,1,1,28,1,0.027931,0,0,-0.7,2189,1,82,82,0,-0.7,5024,1,0,-0.6,1,6
"1229",21,1,1,29,1,0.027931,1,1,0.8,2527,1,92,98,1,0.9,5047,1,1,0.7,1,6
"1230",21,1,1,30,1,0.027931,0,0,-0.8,1602,1,92,100,0,-1,3947,1,0,-1,1,6
"1231",21,1,1,31,1,0.027931,1,1,0.6,1429,1,68,68,1,0.6,6429,1,0,-0.7,0,6
"1232",21,1,1,32,1,0.027931,1,1,0.8,1497,1,92,100,1,1,4007,1,1,0.8,1,6
"1233",21,1,1,33,1,0.027931,1,1,1,1703,1,100,98,1,0.9,4543,1,0,-0.8,0,6
"1234",21,1,1,34,1,0.027931,1,1,0.8,2532,1,92,98,1,0.9,6253,1,1,0.6,1,6
"1235",21,1,1,35,1,0.027931,1,1,0.7,2139,1,82,82,1,0.7,4659,1,0,-0.6,0,6
"1236",21,1,1,36,1,0.027931,1,1,1,1789,1,100,98,1,0.9,5795,1,0,-0.8,0,6
"1237",21,1,1,37,1,0.027931,1,1,1,2571,1,100,100,1,1,6536,1,0,-0.7,0,6
"1238",21,1,1,38,1,0.027931,1,1,1,1845,1,100,100,1,1,3676,1,1,0.6,1,6
"1239",21,1,1,39,1,0.027931,0,0,-0.7,1225,1,82,92,0,-0.8,4635,1,0,-0.6,1,6
"1240",21,1,1,40,1,0.027931,0,0,-0.9,2255,1,98,100,0,-1,4496,1,0,-0.8,1,6
"1241",21,1,1,41,1,0.027931,0,0,-1,2013,1,100,98,0,-0.9,8918,1,1,0.7,0,6
"1242",21,1,1,42,1,0.027931,0,0,-0.7,1520,1,82,92,0,-0.8,4025,1,0,-0.8,1,6
"1243",21,1,1,43,1,0.027931,1,1,0.6,1315,1,68,68,1,0.6,5585,1,0,-0.8,0,6
"1244",21,1,1,44,1,0.027931,1,1,0.9,3381,1,98,100,1,1,5786,1,1,0.8,1,6
"1245",21,1,1,45,1,0.027931,0,0,-0.8,1540,1,92,98,0,-0.9,4380,1,0,-0.7,1,6
"1246",21,1,1,46,1,0.027931,0,0,-1,3032,1,100,100,0,-1,6597,1,0,-0.6,1,6
"1247",21,1,1,47,1,0.027931,1,1,0.8,1835,1,92,98,1,0.9,4865,1,1,0.9,1,6
"1248",21,1,1,48,1,0.027931,1,1,0.9,1793,1,98,100,1,1,3918,1,1,1,1,6
"1249",21,1,1,49,1,0.027931,0,0,-1,4396,1,100,100,0,-1,6161,1,0,-0.9,1,6
"1250",21,1,1,50,1,0.027931,1,1,0.8,2224,1,92,98,1,0.9,4979,1,1,0.8,1,6
"1251",21,1,1,51,1,0.027931,0,0,-0.6,1101,1,68,82,0,-0.7,4526,1,0,-0.7,1,6
"1252",21,1,1,52,1,0.027931,0,0,-1,2020,1,100,100,0,-1,4195,1,0,-0.9,1,6
"1253",21,1,1,53,1,0.027931,1,1,0.6,1083,1,68,92,1,0.8,7034,1,1,1,1,6
"1254",21,1,1,54,1,0.027931,0,0,-1,1742,1,100,100,0,-1,3782,1,0,-0.8,1,6
"1255",21,1,1,55,1,0.027931,0,0,-0.9,3486,1,98,100,0,-1,5517,1,0,-1,1,6
"1256",21,1,1,56,1,0.027931,0,0,-1,2953,1,100,98,0,-0.9,7943,1,1,0.9,0,6
"1257",21,1,1,57,1,0.027931,0,0,-0.7,2724,1,82,82,0,-0.7,4749,1,0,-0.6,1,6
"1258",21,1,1,58,1,0.027931,1,0,-0.8,1795,0,-28,-28,0,-0.8,5620,0,0,-0.7,0,6
"1259",21,1,1,59,1,0.027931,0,0,-0.6,3121,1,68,68,0,-0.6,5606,1,1,0.6,0,6
"1260",21,1,1,60,1,0.027931,0,0,-0.9,4192,1,98,92,0,-0.8,8282,1,1,0.8,0,6
"1261",21,1,1,61,1,0.027931,0,0,-0.8,6563,1,92,98,0,-0.9,9308,1,0,-1,1,6
"1262",21,1,1,62,1,0.027931,0,1,0.6,1018,0,28,28,1,0.6,3738,0,0,-0.6,1,6
"1263",21,1,1,63,1,0.027931,0,1,0.6,1372,0,28,28,1,0.6,7792,0,0,-0.8,1,6
"1264",21,1,1,64,1,0.027931,0,0,-0.6,918,1,68,82,0,-0.7,3454,1,0,-1,1,6
"1265",21,1,1,65,1,0.027931,1,1,0.7,3513,1,82,92,1,0.8,5873,1,1,1,1,6
"1266",21,1,1,66,1,0.027931,1,1,0.7,2216,1,82,82,1,0.7,4457,1,1,0.7,1,6
"1267",21,1,1,67,1,0.027931,1,1,0.8,2321,1,92,98,1,0.9,5361,1,1,0.9,1,6
"1268",21,1,1,68,1,0.027931,1,1,0.6,1668,1,68,68,1,0.6,3849,1,0,-0.6,0,6
"1269",21,1,1,69,1,0.027931,1,1,0.7,3193,1,82,82,1,0.7,4728,1,1,0.6,1,6
"1270",21,1,1,70,1,0.027931,1,1,0.8,2935,1,92,98,1,0.9,5496,1,1,0.9,1,6
"1271",21,1,1,71,1,0.027931,0,0,-0.8,1197,1,92,98,0,-0.9,5087,1,0,-0.7,1,6
"1272",21,1,1,72,1,0.027931,0,1,0.6,1961,0,28,2,1,0.7,4243,0,1,1,0,6
"1273",21,1,1,73,1,0.027931,1,1,0.7,4434,1,82,82,1,0.7,6154,1,1,0.7,1,6
"1274",21,1,1,74,1,0.027931,1,1,0.9,1952,1,98,100,1,1,3737,1,1,1,1,6
"1275",21,1,1,75,1,0.027931,0,0,-0.6,850,1,68,28,1,0.6,5995,0,1,0.9,0,6
"1276",21,1,1,76,1,0.027931,1,1,0.6,1945,1,68,68,1,0.6,5206,1,0,-0.9,0,6
"1277",21,1,1,77,1,0.027931,0,0,-0.9,1990,1,98,100,0,-1,3880,1,0,-1,1,6
"1278",21,1,1,78,1,0.027931,1,1,0.7,1493,1,82,82,1,0.7,3838,1,1,0.6,1,6
"1279",21,1,1,79,1,0.027931,1,1,0.7,3338,1,82,82,1,0.7,5418,1,1,0.7,1,6
"1280",21,1,1,80,1,0.027931,0,0,-0.8,1471,1,92,98,0,-0.9,4881,1,0,-0.7,1,6
"1281",21,1,1,81,1,0.027931,1,1,0.8,1678,1,92,98,1,0.9,4753,1,1,1,1,6
"1282",21,1,1,82,1,0.027931,1,1,1,3626,1,100,98,1,0.9,6802,1,0,-0.6,0,6
"1283",21,1,1,83,1,0.027931,0,1,0.7,2220,0,2,2,1,0.7,5900,0,0,-0.9,1,6
"1284",21,1,1,84,1,0.027931,0,0,-0.7,1180,1,82,92,0,-0.8,4071,1,0,-0.8,1,6
"1285",21,1,1,85,1,0.027931,1,1,0.7,4976,1,82,82,1,0.7,7081,1,1,0.7,1,6
"1286",21,1,1,86,1,0.027931,1,1,1,1664,1,100,100,1,1,3724,1,1,0.8,1,6
"1287",21,1,1,87,1,0.027931,0,0,-0.6,2194,1,68,68,0,-0.6,5709,1,1,0.7,0,6
"1288",21,1,1,88,1,0.027931,1,1,0.7,2019,1,82,92,1,0.8,4619,1,1,0.9,1,6
"1289",21,1,1,89,1,0.027931,1,1,0.6,1167,1,68,68,1,0.6,4822,1,0,-0.9,0,6
"1290",21,1,1,90,1,0.027931,1,0,-0.6,2931,0,28,28,0,-0.6,5181,0,1,0.9,1,6
"1291",21,1,1,91,1,0.027931,1,1,0.7,1782,1,82,98,1,0.9,5077,1,1,1,1,6
"1292",21,1,1,92,1,0.027931,1,1,0.6,1304,1,68,82,1,0.7,3838,1,1,0.9,1,6
"1293",21,1,1,93,1,0.027931,1,1,0.7,1628,1,82,92,1,0.8,4578,1,1,1,1,6
"1294",21,1,1,94,1,0.027931,1,1,0.7,2254,1,82,92,1,0.8,4449,1,1,0.9,1,6
"1295",21,1,1,95,1,0.027931,1,1,0.7,1535,1,82,82,1,0.7,3745,1,1,0.6,1,6
"1296",21,1,1,96,1,0.027931,1,1,0.7,1636,1,82,92,1,0.8,4391,1,1,0.7,1,6
"1297",21,1,1,97,1,0.027931,0,0,-1,2072,1,100,100,0,-1,3617,1,0,-1,1,6
"1298",21,1,1,98,1,0.027931,1,1,0.8,1606,1,92,98,1,0.9,3991,1,1,0.9,1,6
"1299",21,1,1,99,1,0.027931,1,1,0.9,2080,1,98,100,1,1,4215,1,1,0.8,1,6
"1300",21,1,1,100,1,0.027931,0,1,0.8,2622,0,-28,-28,1,0.8,5482,0,0,-0.9,1,6
"1301",21,1,1,101,1,0.027931,0,0,-0.9,4895,1,98,100,0,-1,12635,1,0,-0.9,1,6
"1302",21,1,1,102,1,0.027931,0,0,-0.8,1163,1,92,100,0,-1,3923,1,0,-1,1,6
"1303",21,1,1,103,1,0.027931,0,0,-1,3781,1,100,100,0,-1,9121,1,0,-0.7,1,6
"1304",21,1,1,104,1,0.027931,1,1,0.9,8239,1,98,100,1,1,10734,1,1,0.9,1,6
"1305",21,1,1,105,1,0.027931,1,1,1,2403,1,100,100,1,1,5353,1,1,0.6,1,6
"1306",21,1,1,106,1,0.027931,0,0,-0.9,4357,1,98,100,0,-1,6887,1,0,-0.9,1,6
"1307",21,1,1,107,1,0.027931,0,0,-1,1712,1,100,100,0,-1,4392,1,0,-0.7,1,6
"1308",21,1,1,108,1,0.027931,0,0,-1,4250,1,100,100,0,-1,6945,1,0,-0.8,1,6
"1309",21,1,1,109,1,0.027931,1,0,-0.6,3160,0,28,28,0,-0.6,5250,0,0,-0.6,0,6
"1310",21,1,1,110,1,0.027931,1,1,0.8,1627,1,92,100,1,1,4948,1,1,1,1,6
"1311",21,1,1,111,1,0.027931,0,0,-1,5423,1,100,98,0,-0.9,7583,1,1,0.6,0,6
"1312",21,1,1,112,1,0.027931,0,0,-1,1625,1,100,100,0,-1,4611,1,1,0.8,0,6
"1313",21,1,1,113,1,0.027931,0,0,-0.7,3757,1,82,92,0,-0.8,6667,1,0,-0.8,1,6
"1314",21,1,1,114,1,0.027931,0,0,-0.6,1469,1,68,92,0,-0.8,4774,1,0,-1,1,6
"1315",21,1,1,115,1,0.027931,0,0,-0.9,1952,1,98,98,0,-0.9,4282,1,1,0.6,0,6
"1316",21,1,1,116,1,0.027931,0,0,-1,3414,1,100,100,0,-1,5449,1,0,-0.7,1,6
"1317",21,1,1,117,1,0.027931,1,0,-0.6,1318,0,28,2,0,-0.7,4478,0,0,-0.6,0,6
"1318",21,1,1,118,1,0.027931,1,1,0.9,3945,1,98,100,1,1,6520,1,1,0.7,1,6
"1319",21,1,1,119,1,0.027931,0,0,-1,1660,1,100,100,0,-1,3650,1,0,-1,1,6
"1320",21,1,1,120,1,0.027931,0,0,-1,2177,1,100,100,0,-1,5642,1,1,0.7,0,6
"1321",21,1,2,121,2,0.027931,0,0,-0.9,1989,1,98,100,0,-1,4841,1,0,-1,1,6
"1322",21,1,2,122,2,0.027931,1,1,0.7,1271,1,82,98,1,0.9,5326,1,1,0.7,1,6
"1323",21,1,2,123,2,0.027931,1,1,0.6,4587,1,68,92,1,0.8,6957,1,1,1,1,6
"1324",21,1,2,124,2,0.027931,1,1,1,1435,1,100,100,1,1,4925,1,1,0.6,1,6
"1325",21,1,2,125,2,0.027931,1,1,0.9,1535,1,98,100,1,1,4820,1,1,0.7,1,6
"1326",21,1,2,126,2,0.027931,0,0,-1,1611,1,100,100,0,-1,3846,1,0,-0.9,1,6
"1327",21,1,2,127,2,0.027931,0,0,-0.7,2159,1,82,82,0,-0.7,6185,1,1,0.6,0,6
"1328",21,1,2,128,2,0.027931,1,1,0.9,1722,1,98,100,1,1,4342,1,1,0.8,1,6
"1329",21,1,2,129,2,0.027931,1,1,1,1793,1,100,100,1,1,4299,1,1,0.6,1,6
"1330",21,1,2,130,2,0.027931,1,1,0.6,1087,1,68,82,1,0.7,4222,1,1,0.6,1,6
"1331",21,1,2,131,2,0.027931,1,1,0.7,1306,1,82,100,1,1,4772,1,1,1,1,6
"1332",21,1,2,132,2,0.027931,0,0,-0.9,2120,1,98,98,0,-0.9,5280,1,1,0.6,0,6
"1333",21,1,2,133,2,0.027931,0,0,-0.7,2060,1,82,82,0,-0.7,4876,1,1,0.6,0,6
"1334",21,1,2,134,2,0.027931,1,1,1,3532,1,100,100,1,1,7852,1,0,-0.6,0,6
"1335",21,1,2,135,2,0.027931,1,1,1,3875,1,100,100,1,1,5980,1,1,0.8,1,6
"1336",21,1,2,136,2,0.027931,0,1,0.7,1319,0,2,2,1,0.7,5224,0,0,-0.8,1,6
"1337",21,1,2,137,2,0.027931,0,0,-1,1676,1,100,100,0,-1,3951,1,0,-0.7,1,6
"1338",21,1,2,138,2,0.027931,1,1,0.9,4932,1,98,100,1,1,7347,1,1,0.7,1,6
"1339",21,1,2,139,2,0.027931,0,0,-0.6,1386,1,68,92,0,-0.8,5761,1,0,-1,1,6
"1340",21,1,2,140,2,0.027931,1,1,0.8,3905,1,92,98,1,0.9,10836,1,1,0.7,1,6
"1341",21,1,2,141,2,0.027931,1,1,0.7,1523,1,82,100,1,1,6958,1,1,1,1,6
"1342",21,1,2,142,2,0.027931,0,0,-0.9,1512,1,98,98,0,-0.9,4722,1,1,0.7,0,6
"1343",21,1,2,143,2,0.027931,0,0,-0.9,4809,1,98,100,0,-1,7270,1,0,-0.7,1,6
"1344",21,1,2,144,2,0.027931,1,1,0.6,1583,1,68,92,1,0.8,5048,1,1,0.8,1,6
"1345",21,1,2,145,2,0.027931,1,1,0.6,3830,1,68,82,1,0.7,8890,1,1,0.9,1,6
"1346",21,1,2,146,2,0.027931,1,1,0.9,2153,1,98,100,1,1,4648,1,1,0.7,1,6
"1347",21,1,2,147,2,0.027931,1,1,0.9,1425,1,98,100,1,1,3535,1,1,1,1,6
"1348",21,1,2,148,2,0.027931,0,0,-0.8,1777,1,92,98,0,-0.9,6042,1,0,-0.6,1,6
"1349",21,1,2,149,2,0.027931,1,1,0.9,1461,1,98,100,1,1,4956,1,1,0.6,1,6
"1350",21,1,2,150,2,0.027931,1,0,-0.6,1510,0,28,28,0,-0.6,5110,0,1,0.7,1,6
"1351",21,1,2,151,2,0.027931,1,1,0.6,1298,1,68,92,1,0.8,5053,1,1,1,1,6
"1352",21,1,2,152,2,0.027931,1,1,0.6,2848,1,68,82,1,0.7,7274,1,1,0.9,1,6
"1353",21,1,2,153,2,0.027931,1,1,0.8,1051,1,92,100,1,1,5966,1,1,0.9,1,6
"1354",21,1,2,154,2,0.027931,1,1,0.9,1494,1,98,98,1,0.9,4545,1,0,-0.6,0,6
"1355",21,1,2,155,2,0.027931,0,0,-0.6,834,1,68,82,0,-0.7,6669,1,0,-0.7,1,6
"1356",21,1,2,156,2,0.027931,0,0,-0.9,1952,1,98,100,0,-1,4193,1,0,-0.7,1,6
"1357",21,1,2,157,2,0.027931,1,1,0.9,2171,1,98,100,1,1,4356,1,1,0.7,1,6
"1358",21,1,2,158,2,0.027931,0,0,-0.6,1115,1,68,98,0,-0.9,4716,1,0,-1,1,6
"1359",21,1,2,159,2,0.027931,0,0,-0.8,1236,1,92,100,0,-1,3821,1,0,-0.8,1,6
"1360",21,1,2,160,2,0.027931,0,0,-0.9,1339,1,98,100,0,-1,3529,1,0,-1,1,6
"1361",21,1,2,161,2,0.027931,0,0,-0.9,1418,1,98,100,0,-1,3658,1,0,-0.8,1,6
"1362",21,1,2,162,2,0.027931,0,0,-0.9,2446,1,98,100,0,-1,7216,1,0,-0.7,1,6
"1363",21,1,2,163,2,0.027931,1,1,0.9,1473,1,98,100,1,1,3618,1,1,1,1,6
"1364",21,1,2,164,2,0.027931,0,0,-0.9,2910,1,98,100,0,-1,5680,1,0,-0.8,1,6
"1365",21,1,2,165,2,0.027931,0,0,-0.9,1540,1,98,100,0,-1,5340,1,0,-0.9,1,6
"1366",21,1,2,166,2,0.027931,0,0,-0.6,1195,1,68,68,0,-0.6,4240,1,1,0.6,0,6
"1367",21,1,2,167,2,0.027931,1,0,-0.6,1167,0,28,68,1,0.6,8772,1,1,0.9,1,6
"1368",21,1,2,168,2,0.027931,1,1,0.8,2293,1,92,98,1,0.9,4823,1,1,0.9,1,6
"1369",21,1,2,169,2,0.027931,1,1,0.9,1267,1,98,100,1,1,3437,1,1,0.9,1,6
"1370",21,1,2,170,2,0.027931,0,0,-0.9,1579,1,98,100,0,-1,3780,1,0,-0.9,1,6
"1371",21,1,2,171,2,0.027931,1,1,0.6,920,1,68,92,1,0.8,4070,1,1,1,1,6
"1372",21,1,2,172,2,0.027931,1,1,0.8,1719,1,92,98,1,0.9,4849,1,1,0.9,1,6
"1373",21,1,2,173,2,0.027931,1,1,0.9,1241,1,98,100,1,1,3660,1,1,0.9,1,6
"1374",21,1,2,174,2,0.027931,1,0,-0.6,828,0,28,28,0,-0.6,3653,0,1,0.6,1,6
"1375",21,1,2,175,2,0.027931,0,1,0.6,1927,0,28,68,0,-0.6,4382,1,0,-0.6,1,6
"1376",21,1,2,176,2,0.027931,0,1,0.6,2452,0,28,68,0,-0.6,5317,1,0,-0.7,1,6
"1377",21,1,2,177,2,0.027931,0,0,-0.6,963,1,68,92,0,-0.8,4398,1,0,-1,1,6
"1378",21,1,2,178,2,0.027931,0,0,-0.6,2988,1,68,82,0,-0.7,9359,1,0,-0.7,1,6
"1379",21,1,2,179,2,0.027931,1,1,0.8,1973,1,92,100,1,1,4338,1,1,1,1,6
"1380",21,1,2,180,2,0.027931,1,1,0.9,3544,1,98,100,1,1,5804,1,1,0.9,1,6
"1381",21,1,2,181,2,0.027931,0,1,0.8,1773,0,-28,-28,1,0.8,5028,0,0,-0.6,1,6
"1382",21,1,2,182,2,0.027931,0,0,-0.8,1677,1,92,98,0,-0.9,5233,1,0,-0.6,1,6
"1383",21,1,2,183,2,0.027931,0,0,-0.6,834,1,68,92,0,-0.8,3899,1,0,-0.9,1,6
"1384",21,1,2,184,2,0.027931,0,0,-0.9,1655,1,98,100,0,-1,3775,1,0,-1,1,6
"1385",21,1,2,185,2,0.027931,1,1,0.7,1541,1,82,100,1,1,5316,1,1,1,1,6
"1386",21,1,2,186,2,0.027931,0,0,-0.8,1113,1,92,100,0,-1,5163,1,0,-0.7,1,6
"1387",21,1,2,187,2,0.027931,1,1,0.9,2947,1,98,100,1,1,5082,1,1,0.8,1,6
"1388",21,1,2,188,2,0.027931,1,1,0.9,2274,1,98,100,1,1,5435,1,1,0.7,1,6
"1389",21,1,2,189,2,0.027931,0,0,-0.6,1009,1,68,92,0,-0.8,4109,1,0,-1,1,6
"1390",21,1,2,190,2,0.027931,0,0,-0.6,1461,1,68,82,0,-0.7,6087,1,0,-0.8,1,6
"1391",21,1,2,191,2,0.027931,1,1,0.8,1173,1,92,82,1,0.7,6853,1,0,-0.6,0,6
"1392",21,1,2,192,2,0.027931,1,1,0.9,1867,1,98,100,1,1,5267,1,1,0.6,1,6
"1393",21,1,2,193,2,0.027931,1,1,0.9,1917,1,98,100,1,1,4157,1,1,0.8,1,6
"1394",21,1,2,194,2,0.027931,0,0,-0.6,1054,1,68,82,0,-0.7,4350,1,0,-0.6,1,6
"1395",21,1,2,195,2,0.027931,0,0,-0.6,1353,1,68,92,0,-0.8,3803,1,0,-0.7,1,6
"1396",21,1,2,196,2,0.027931,0,0,-0.8,1451,1,92,100,0,-1,4097,1,0,-1,1,6
"1397",21,1,2,197,2,0.027931,0,1,0.6,763,0,28,68,0,-0.6,4313,1,0,-0.6,1,6
"1398",21,1,2,198,2,0.027931,1,1,0.6,777,1,68,92,1,0.8,4187,1,1,0.8,1,6
"1399",21,1,2,199,2,0.027931,1,1,0.9,3080,1,98,100,1,1,5515,1,1,1,1,6
"1400",21,1,2,200,2,0.027931,1,1,0.8,1525,1,92,98,1,0.9,4941,1,1,0.6,1,6
"1401",21,1,2,201,2,0.027931,1,1,0.7,1979,1,82,100,1,1,5019,1,1,0.7,1,6
"1402",21,1,2,202,2,0.027931,0,0,-0.9,3259,1,98,100,0,-1,5825,1,0,-0.9,1,6
"1403",21,1,2,203,2,0.027931,1,1,0.9,1742,1,98,100,1,1,3977,1,1,0.8,1,6
